"SOAcondition","acc","accuracy","average_response_time","avg_rt","background","bidi","canvas_backend","clock_backend","color_backend","compensation","coordinates","correct","correct_instruction1","count_block1_sequence","count_block2_sequence","count_block_1","count_block_2","count_breakScreen","count_experiment","count_finish","count_instruction1","count_instruction2","count_keyboard_script","count_logger","count_practiceBlock","count_practice_sequence","count_setup_script","custom_cursor","datetime","description","disable_garbage_collection","experiment_file","experiment_path","font_bold","font_family","font_italic","font_size","font_underline","foreground","form_clicks","fullscreen","height","keyboard_backend","live_row","live_row_practiceBlock","logfile","mouse_backend","opensesame_codename","opensesame_version","operation","repeat_cycle","response","response_breakScreen","response_finish","response_instruction1","response_instruction2","response_time","response_time_breakScreen","response_time_finish","response_time_instruction1","response_time_instruction2","round_decimals","rt","sampler_backend","size","sound_buf_size","sound_channels","sound_freq","sound_sample_size","start","stimulus","subject_nr","subject_parity","synth_backend","time_block1_sequence","time_block2_sequence","time_block_1","time_block_2","time_breakScreen","time_experiment","time_finish","time_instruction1","time_instruction2","time_keyboard_script","time_logger","time_practiceBlock","time_practice_sequence","time_setup_script","title","total_correct","total_response_time","total_responses","transparent_variables","truth","uniform_coordinates","width"
"negative","undefined","0","undefined","undefined","white","no","legacy","legacy","legacy","0","relative","undefined","undefined","NA","NA","0","0","0","0","0","0","0","0","0","0","0","0","no","04/08/19 09:42:56","A simple template for the mouse-tracking paradigm","yes","Experiment-TF.osexp","C:\Users\Kristen\Documents\opPreviewExperiment-master\procedure","no","mono","no","24","no","black","no","yes","1050","legacy","0","0","C:/Users/Kristen/Documents/opPreviewExperiment-master/procedure/subject-15.csv","legacy","Kafkaesque Koffka","3.2.6","mult","0","l","NA","NA","a","NA","28246","NA","NA","28246","NA","2","1564","legacy","NA","1024","2","48000","-16","experiment","0_3_mult_T.jpg","15","odd","legacy","NA","NA","NA","NA","NA","1999","NA","2013","NA","30263","33997","30260","30263","2000","mousetracking operator preview effect","0","0","0","no","true","no","1680"
"neutral","undefined","1","undefined","undefined","white","no","legacy","legacy","legacy","0","relative","undefined","undefined","NA","NA","0","0","0","0","0","0","0","1","1","0","1","0","no","04/08/19 09:42:56","A simple template for the mouse-tracking paradigm","yes","Experiment-TF.osexp","C:\Users\Kristen\Documents\opPreviewExperiment-master\procedure","no","mono","no","24","no","black","no","yes","1050","legacy","1","1","C:/Users/Kristen/Documents/opPreviewExperiment-master/procedure/subject-15.csv","legacy","Kafkaesque Koffka","3.2.6","add","0","a","NA","NA","a","NA","28246","NA","NA","28246","NA","2","1104","legacy","NA","1024","2","48000","-16","experiment","1_4_add_T.jpg","15","odd","legacy","NA","NA","NA","NA","NA","1999","NA","2013","NA","34044","36125","30260","34043","2000","mousetracking operator preview effect","0","0","0","no","true","no","1680"
"neutral","undefined","1","undefined","undefined","white","no","legacy","legacy","legacy","0","relative","undefined","undefined","NA","NA","0","0","0","0","0","0","0","2","2","0","2","0","no","04/08/19 09:42:56","A simple template for the mouse-tracking paradigm","yes","Experiment-TF.osexp","C:\Users\Kristen\Documents\opPreviewExperiment-master\procedure","no","mono","no","24","no","black","no","yes","1050","legacy","2","2","C:/Users/Kristen/Documents/opPreviewExperiment-master/procedure/subject-15.csv","legacy","Kafkaesque Koffka","3.2.6","mult","0","a","NA","NA","a","NA","28246","NA","NA","28246","NA","2","870","legacy","NA","1024","2","48000","-16","experiment","1_4_mult_T.jpg","15","odd","legacy","NA","NA","NA","NA","NA","1999","NA","2013","NA","36146","37992","30260","36146","2000","mousetracking operator preview effect","0","0","0","no","true","no","1680"
"negative","undefined","1","undefined","undefined","white","no","legacy","legacy","legacy","0","relative","undefined","undefined","NA","NA","0","0","0","0","0","0","0","3","3","0","3","0","no","04/08/19 09:42:56","A simple template for the mouse-tracking paradigm","yes","Experiment-TF.osexp","C:\Users\Kristen\Documents\opPreviewExperiment-master\procedure","no","mono","no","24","no","black","no","yes","1050","legacy","3","3","C:/Users/Kristen/Documents/opPreviewExperiment-master/procedure/subject-15.csv","legacy","Kafkaesque Koffka","3.2.6","add","0","a","NA","NA","a","NA","28246","NA","NA","28246","NA","2","1039","legacy","NA","1024","2","48000","-16","experiment","1_4_add_T.jpg","15","odd","legacy","NA","NA","NA","NA","NA","1999","NA","2013","NA","38014","40185","30260","38014","2000","mousetracking operator preview effect","0","0","0","no","true","no","1680"
"negative","undefined","1","undefined","undefined","white","no","legacy","legacy","legacy","0","relative","undefined","undefined","NA","NA","0","0","0","0","0","0","0","4","4","0","4","0","no","04/08/19 09:42:56","A simple template for the mouse-tracking paradigm","yes","Experiment-TF.osexp","C:\Users\Kristen\Documents\opPreviewExperiment-master\procedure","no","mono","no","24","no","black","no","yes","1050","legacy","4","4","C:/Users/Kristen/Documents/opPreviewExperiment-master/procedure/subject-15.csv","legacy","Kafkaesque Koffka","3.2.6","mult","0","l","NA","NA","a","NA","28246","NA","NA","28246","NA","2","1300","legacy","NA","1024","2","48000","-16","experiment","0_3_mult_F.jpg","15","odd","legacy","NA","NA","NA","NA","NA","1999","NA","2013","NA","40216","42656","30260","40216","2000","mousetracking operator preview effect","0","0","0","no","false","no","1680"
"negative","undefined","1","undefined","undefined","white","no","legacy","legacy","legacy","0","relative","undefined","undefined","NA","NA","0","0","0","0","0","0","0","5","5","0","5","0","no","04/08/19 09:42:56","A simple template for the mouse-tracking paradigm","yes","Experiment-TF.osexp","C:\Users\Kristen\Documents\opPreviewExperiment-master\procedure","no","mono","no","24","no","black","no","yes","1050","legacy","5","5","C:/Users/Kristen/Documents/opPreviewExperiment-master/procedure/subject-15.csv","legacy","Kafkaesque Koffka","3.2.6","mult","0","l","NA","NA","a","NA","28246","NA","NA","28246","NA","2","1075","legacy","NA","1024","2","48000","-16","experiment","1_4_mult_F.jpg","15","odd","legacy","NA","NA","NA","NA","NA","1999","NA","2013","NA","42686","44913","30260","42686","2000","mousetracking operator preview effect","0","0","0","no","false","no","1680"
"neutral","undefined","1","undefined","undefined","white","no","legacy","legacy","legacy","0","relative","undefined","undefined","NA","NA","0","0","0","0","0","0","0","6","6","0","6","0","no","04/08/19 09:42:56","A simple template for the mouse-tracking paradigm","yes","Experiment-TF.osexp","C:\Users\Kristen\Documents\opPreviewExperiment-master\procedure","no","mono","no","24","no","black","no","yes","1050","legacy","6","6","C:/Users/Kristen/Documents/opPreviewExperiment-master/procedure/subject-15.csv","legacy","Kafkaesque Koffka","3.2.6","mult","0","a","NA","NA","a","NA","28246","NA","NA","28246","NA","2","1569","legacy","NA","1024","2","48000","-16","experiment","0_3_mult_T.jpg","15","odd","legacy","NA","NA","NA","NA","NA","1999","NA","2013","NA","44933","47476","30260","44933","2000","mousetracking operator preview effect","0","0","0","no","true","no","1680"
"neutral","undefined","1","undefined","undefined","white","no","legacy","legacy","legacy","0","relative","undefined","undefined","NA","NA","0","0","0","0","0","0","0","7","7","0","7","0","no","04/08/19 09:42:56","A simple template for the mouse-tracking paradigm","yes","Experiment-TF.osexp","C:\Users\Kristen\Documents\opPreviewExperiment-master\procedure","no","mono","no","24","no","black","no","yes","1050","legacy","7","7","C:/Users/Kristen/Documents/opPreviewExperiment-master/procedure/subject-15.csv","legacy","Kafkaesque Koffka","3.2.6","mult","0","l","NA","NA","a","NA","28246","NA","NA","28246","NA","2","1445","legacy","NA","1024","2","48000","-16","experiment","1_4_mult_F.jpg","15","odd","legacy","NA","NA","NA","NA","NA","1999","NA","2013","NA","47502","49918","30260","47502","2000","mousetracking operator preview effect","0","0","0","no","false","no","1680"
"negative","undefined","1","undefined","undefined","white","no","legacy","legacy","legacy","0","relative","undefined","undefined","NA","NA","0","0","0","0","0","0","0","8","8","0","8","0","no","04/08/19 09:42:56","A simple template for the mouse-tracking paradigm","yes","Experiment-TF.osexp","C:\Users\Kristen\Documents\opPreviewExperiment-master\procedure","no","mono","no","24","no","black","no","yes","1050","legacy","8","8","C:/Users/Kristen/Documents/opPreviewExperiment-master/procedure/subject-15.csv","legacy","Kafkaesque Koffka","3.2.6","mult","0","a","NA","NA","a","NA","28246","NA","NA","28246","NA","2","943","legacy","NA","1024","2","48000","-16","experiment","1_4_mult_T.jpg","15","odd","legacy","NA","NA","NA","NA","NA","1999","NA","2013","NA","49943","52032","30260","49943","2000","mousetracking operator preview effect","0","0","0","no","true","no","1680"
"negative","undefined","1","undefined","undefined","white","no","legacy","legacy","legacy","0","relative","undefined","undefined","NA","NA","0","0","0","0","0","0","0","9","9","0","9","0","no","04/08/19 09:42:56","A simple template for the mouse-tracking paradigm","yes","Experiment-TF.osexp","C:\Users\Kristen\Documents\opPreviewExperiment-master\procedure","no","mono","no","24","no","black","no","yes","1050","legacy","9","9","C:/Users/Kristen/Documents/opPreviewExperiment-master/procedure/subject-15.csv","legacy","Kafkaesque Koffka","3.2.6","add","0","l","NA","NA","a","NA","28246","NA","NA","28246","NA","2","1143","legacy","NA","1024","2","48000","-16","experiment","1_4_add_F.jpg","15","odd","legacy","NA","NA","NA","NA","NA","1999","NA","2013","NA","52062","54360","30260","52062","2000","mousetracking operator preview effect","0","0","0","no","false","no","1680"
"neutral","undefined","1","undefined","undefined","white","no","legacy","legacy","legacy","0","relative","undefined","undefined","NA","NA","0","0","0","0","0","0","0","10","10","0","10","0","no","04/08/19 09:42:56","A simple template for the mouse-tracking paradigm","yes","Experiment-TF.osexp","C:\Users\Kristen\Documents\opPreviewExperiment-master\procedure","no","mono","no","24","no","black","no","yes","1050","legacy","10","10","C:/Users/Kristen/Documents/opPreviewExperiment-master/procedure/subject-15.csv","legacy","Kafkaesque Koffka","3.2.6","add","0","l","NA","NA","a","NA","28246","NA","NA","28246","NA","2","904","legacy","NA","1024","2","48000","-16","experiment","1_4_add_F.jpg","15","odd","legacy","NA","NA","NA","NA","NA","1999","NA","2013","NA","54387","56271","30260","54387","2000","mousetracking operator preview effect","0","0","0","no","false","no","1680"
"neutral","undefined","1","undefined","undefined","white","no","legacy","legacy","legacy","0","relative","undefined","undefined","NA","NA","0","0","0","0","0","0","0","11","11","0","11","0","no","04/08/19 09:42:56","A simple template for the mouse-tracking paradigm","yes","Experiment-TF.osexp","C:\Users\Kristen\Documents\opPreviewExperiment-master\procedure","no","mono","no","24","no","black","no","yes","1050","legacy","11","11","C:/Users/Kristen/Documents/opPreviewExperiment-master/procedure/subject-15.csv","legacy","Kafkaesque Koffka","3.2.6","mult","0","l","NA","NA","a","NA","28246","NA","NA","28246","NA","2","1133","legacy","NA","1024","2","48000","-16","experiment","0_3_mult_F.jpg","15","odd","legacy","NA","NA","NA","NA","NA","1999","NA","2013","NA","56298","58408","30260","56298","2000","mousetracking operator preview effect","0","0","0","no","false","no","1680"
"neutral","undefined","1","undefined","undefined","white","no","legacy","legacy","legacy","0","relative","undefined","undefined","NA","NA","0","0","0","0","0","0","0","12","12","0","12","0","no","04/08/19 09:42:56","A simple template for the mouse-tracking paradigm","yes","Experiment-TF.osexp","C:\Users\Kristen\Documents\opPreviewExperiment-master\procedure","no","mono","no","24","no","black","no","yes","1050","legacy","12","12","C:/Users/Kristen/Documents/opPreviewExperiment-master/procedure/subject-15.csv","legacy","Kafkaesque Koffka","3.2.6","add","0","a","NA","NA","a","NA","28246","NA","NA","28246","NA","2","1265","legacy","NA","1024","2","48000","-16","experiment","0_3_add_T.jpg","15","odd","legacy","NA","NA","NA","NA","NA","1999","NA","2013","NA","58438","60680","30260","58438","2000","mousetracking operator preview effect","0","0","0","no","true","no","1680"
"neutral","undefined","1","undefined","undefined","white","no","legacy","legacy","legacy","0","relative","undefined","undefined","NA","NA","0","0","0","0","0","0","0","13","13","0","13","0","no","04/08/19 09:42:56","A simple template for the mouse-tracking paradigm","yes","Experiment-TF.osexp","C:\Users\Kristen\Documents\opPreviewExperiment-master\procedure","no","mono","no","24","no","black","no","yes","1050","legacy","13","13","C:/Users/Kristen/Documents/opPreviewExperiment-master/procedure/subject-15.csv","legacy","Kafkaesque Koffka","3.2.6","add","0","l","NA","NA","a","NA","28246","NA","NA","28246","NA","2","1065","legacy","NA","1024","2","48000","-16","experiment","0_3_add_F.jpg","15","odd","legacy","NA","NA","NA","NA","NA","1999","NA","2013","NA","60709","62751","30260","60709","2000","mousetracking operator preview effect","0","0","0","no","false","no","1680"
"negative","undefined","1","undefined","undefined","white","no","legacy","legacy","legacy","0","relative","undefined","undefined","NA","NA","0","0","0","0","0","0","0","14","14","0","14","0","no","04/08/19 09:42:56","A simple template for the mouse-tracking paradigm","yes","Experiment-TF.osexp","C:\Users\Kristen\Documents\opPreviewExperiment-master\procedure","no","mono","no","24","no","black","no","yes","1050","legacy","14","14","C:/Users/Kristen/Documents/opPreviewExperiment-master/procedure/subject-15.csv","legacy","Kafkaesque Koffka","3.2.6","add","0","l","NA","NA","a","NA","28246","NA","NA","28246","NA","2","696","legacy","NA","1024","2","48000","-16","experiment","0_3_add_F.jpg","15","odd","legacy","NA","NA","NA","NA","NA","1999","NA","2013","NA","62782","64623","30260","62781","2000","mousetracking operator preview effect","0","0","0","no","false","no","1680"
"negative","undefined","1","undefined","undefined","white","no","legacy","legacy","legacy","0","relative","undefined","undefined","NA","NA","0","0","0","0","0","0","0","15","15","0","15","0","no","04/08/19 09:42:56","A simple template for the mouse-tracking paradigm","yes","Experiment-TF.osexp","C:\Users\Kristen\Documents\opPreviewExperiment-master\procedure","no","mono","no","24","no","black","no","yes","1050","legacy","15","15","C:/Users/Kristen/Documents/opPreviewExperiment-master/procedure/subject-15.csv","legacy","Kafkaesque Koffka","3.2.6","add","0","a","NA","NA","a","NA","28246","NA","NA","28246","NA","2","1315","legacy","NA","1024","2","48000","-16","experiment","0_3_add_T.jpg","15","odd","legacy","NA","NA","NA","NA","NA","1999","NA","2013","NA","64644","67094","30260","64644","2000","mousetracking operator preview effect","0","0","0","no","true","no","1680"
"neutral","undefined","1","undefined","undefined","white","no","legacy","legacy","legacy","0","relative","undefined","undefined","0","NA","0","0","0","0","0","0","0","16","16","0","15","0","no","04/08/19 09:42:56","A simple template for the mouse-tracking paradigm","yes","Experiment-TF.osexp","C:\Users\Kristen\Documents\opPreviewExperiment-master\procedure","no","mono","no","24","no","black","no","yes","1050","legacy","0","15","C:/Users/Kristen/Documents/opPreviewExperiment-master/procedure/subject-15.csv","legacy","Kafkaesque Koffka","3.2.6","mult","0","a","NA","NA","a","a","5132","NA","NA","28246","5132","2","1566","legacy","small","1024","2","48000","-16","experiment","3_6_mult_true.jpg","15","odd","legacy","72255","NA","72251","NA","NA","1999","NA","2013","67118","72255","74790","30260","64644","2000","mousetracking operator preview effect","0","0","0","no","true","no","1680"
"neutral","undefined","1","undefined","undefined","white","no","legacy","legacy","legacy","0","relative","undefined","undefined","1","NA","0","0","0","0","0","0","0","17","17","0","15","0","no","04/08/19 09:42:56","A simple template for the mouse-tracking paradigm","yes","Experiment-TF.osexp","C:\Users\Kristen\Documents\opPreviewExperiment-master\procedure","no","mono","no","24","no","black","no","yes","1050","legacy","1","15","C:/Users/Kristen/Documents/opPreviewExperiment-master/procedure/subject-15.csv","legacy","Kafkaesque Koffka","3.2.6","add","0","a","NA","NA","a","a","5132","NA","NA","28246","5132","2","2293","legacy","small","1024","2","48000","-16","experiment","5_3_add_true.jpg","15","odd","legacy","74803","NA","72251","NA","NA","1999","NA","2013","67118","74803","78067","30260","64644","2000","mousetracking operator preview effect","0","0","0","no","true","no","1680"
"negative","undefined","1","undefined","undefined","white","no","legacy","legacy","legacy","0","relative","undefined","undefined","2","NA","0","0","0","0","0","0","0","18","18","0","15","0","no","04/08/19 09:42:56","A simple template for the mouse-tracking paradigm","yes","Experiment-TF.osexp","C:\Users\Kristen\Documents\opPreviewExperiment-master\procedure","no","mono","no","24","no","black","no","yes","1050","legacy","2","15","C:/Users/Kristen/Documents/opPreviewExperiment-master/procedure/subject-15.csv","legacy","Kafkaesque Koffka","3.2.6","add","0","a","NA","NA","a","a","5132","NA","NA","28246","5132","2","852","legacy","small","1024","2","48000","-16","experiment","5_3_add_true.jpg","15","odd","legacy","78095","NA","72251","NA","NA","1999","NA","2013","67118","78095","80093","30260","64644","2000","mousetracking operator preview effect","0","0","0","no","true","no","1680"
"negative","undefined","1","undefined","undefined","white","no","legacy","legacy","legacy","0","relative","undefined","undefined","3","NA","0","0","0","0","0","0","0","19","19","0","15","0","no","04/08/19 09:42:56","A simple template for the mouse-tracking paradigm","yes","Experiment-TF.osexp","C:\Users\Kristen\Documents\opPreviewExperiment-master\procedure","no","mono","no","24","no","black","no","yes","1050","legacy","3","15","C:/Users/Kristen/Documents/opPreviewExperiment-master/procedure/subject-15.csv","legacy","Kafkaesque Koffka","3.2.6","add","0","l","NA","NA","a","a","5132","NA","NA","28246","5132","2","1232","legacy","small","1024","2","48000","-16","experiment","2_7_add_FNI.jpg","15","odd","legacy","80125","NA","72251","NA","NA","1999","NA","2013","67118","80125","82485","30260","64644","2000","mousetracking operator preview effect","0","0","0","no","false","no","1680"
"negative","undefined","1","undefined","undefined","white","no","legacy","legacy","legacy","0","relative","undefined","undefined","4","NA","0","0","0","0","0","0","0","20","20","0","15","0","no","04/08/19 09:42:56","A simple template for the mouse-tracking paradigm","yes","Experiment-TF.osexp","C:\Users\Kristen\Documents\opPreviewExperiment-master\procedure","no","mono","no","24","no","black","no","yes","1050","legacy","4","15","C:/Users/Kristen/Documents/opPreviewExperiment-master/procedure/subject-15.csv","legacy","Kafkaesque Koffka","3.2.6","mult","0","a","NA","NA","a","a","5132","NA","NA","28246","5132","2","1206","legacy","large","1024","2","48000","-16","experiment","8_4_mult_true.jpg","15","odd","legacy","82512","NA","72251","NA","NA","1999","NA","2013","67118","82512","84866","30260","64644","2000","mousetracking operator preview effect","0","0","0","no","true","no","1680"
"neutral","undefined","1","undefined","undefined","white","no","legacy","legacy","legacy","0","relative","undefined","undefined","5","NA","0","0","0","0","0","0","0","21","21","0","15","0","no","04/08/19 09:42:56","A simple template for the mouse-tracking paradigm","yes","Experiment-TF.osexp","C:\Users\Kristen\Documents\opPreviewExperiment-master\procedure","no","mono","no","24","no","black","no","yes","1050","legacy","5","15","C:/Users/Kristen/Documents/opPreviewExperiment-master/procedure/subject-15.csv","legacy","Kafkaesque Koffka","3.2.6","add","0","l","NA","NA","a","a","5132","NA","NA","28246","5132","2","1604","legacy","large","1024","2","48000","-16","experiment","9_7_add_FI.jpg","15","odd","legacy","84887","NA","72251","NA","NA","1999","NA","2013","67118","84887","87468","30260","64644","2000","mousetracking operator preview effect","0","0","0","no","false","no","1680"
"negative","undefined","1","undefined","undefined","white","no","legacy","legacy","legacy","0","relative","undefined","undefined","6","NA","0","0","0","0","0","0","0","22","22","0","15","0","no","04/08/19 09:42:56","A simple template for the mouse-tracking paradigm","yes","Experiment-TF.osexp","C:\Users\Kristen\Documents\opPreviewExperiment-master\procedure","no","mono","no","24","no","black","no","yes","1050","legacy","6","15","C:/Users/Kristen/Documents/opPreviewExperiment-master/procedure/subject-15.csv","legacy","Kafkaesque Koffka","3.2.6","mult","0","a","NA","NA","a","a","5132","NA","NA","28246","5132","2","952","legacy","large","1024","2","48000","-16","experiment","4_9_mult_true.jpg","15","odd","legacy","87488","NA","72251","NA","NA","1999","NA","2013","67118","87488","89588","30260","64644","2000","mousetracking operator preview effect","0","0","0","no","true","no","1680"
"negative","undefined","1","undefined","undefined","white","no","legacy","legacy","legacy","0","relative","undefined","undefined","7","NA","0","0","0","0","0","0","0","23","23","0","15","0","no","04/08/19 09:42:56","A simple template for the mouse-tracking paradigm","yes","Experiment-TF.osexp","C:\Users\Kristen\Documents\opPreviewExperiment-master\procedure","no","mono","no","24","no","black","no","yes","1050","legacy","7","15","C:/Users/Kristen/Documents/opPreviewExperiment-master/procedure/subject-15.csv","legacy","Kafkaesque Koffka","3.2.6","add","0","l","NA","NA","a","a","5132","NA","NA","28246","5132","2","1458","legacy","small","1024","2","48000","-16","experiment","8_2_add_FNI.jpg","15","odd","legacy","89631","NA","72251","NA","NA","1999","NA","2013","67118","89631","92242","30260","64644","2000","mousetracking operator preview effect","0","0","0","no","false","no","1680"
"negative","undefined","1","undefined","undefined","white","no","legacy","legacy","legacy","0","relative","undefined","undefined","8","NA","0","0","0","0","0","0","0","24","24","0","15","0","no","04/08/19 09:42:56","A simple template for the mouse-tracking paradigm","yes","Experiment-TF.osexp","C:\Users\Kristen\Documents\opPreviewExperiment-master\procedure","no","mono","no","24","no","black","no","yes","1050","legacy","8","15","C:/Users/Kristen/Documents/opPreviewExperiment-master/procedure/subject-15.csv","legacy","Kafkaesque Koffka","3.2.6","add","0","l","NA","NA","a","a","5132","NA","NA","28246","5132","2","1185","legacy","small","1024","2","48000","-16","experiment","5_3_add_FNI.jpg","15","odd","legacy","92272","NA","72251","NA","NA","1999","NA","2013","67118","92272","94605","30260","64644","2000","mousetracking operator preview effect","0","0","0","no","false","no","1680"
"negative","undefined","1","undefined","undefined","white","no","legacy","legacy","legacy","0","relative","undefined","undefined","9","NA","0","0","0","0","0","0","0","25","25","0","15","0","no","04/08/19 09:42:56","A simple template for the mouse-tracking paradigm","yes","Experiment-TF.osexp","C:\Users\Kristen\Documents\opPreviewExperiment-master\procedure","no","mono","no","24","no","black","no","yes","1050","legacy","9","15","C:/Users/Kristen/Documents/opPreviewExperiment-master/procedure/subject-15.csv","legacy","Kafkaesque Koffka","3.2.6","add","0","a","NA","NA","a","a","5132","NA","NA","28246","5132","2","1806","legacy","large","1024","2","48000","-16","experiment","6_8_add_true.jpg","15","odd","legacy","94620","NA","72251","NA","NA","1999","NA","2013","67118","94620","97575","30260","64644","2000","mousetracking operator preview effect","0","0","0","no","true","no","1680"
"neutral","undefined","1","undefined","undefined","white","no","legacy","legacy","legacy","0","relative","undefined","undefined","10","NA","0","0","0","0","0","0","0","26","26","0","15","0","no","04/08/19 09:42:56","A simple template for the mouse-tracking paradigm","yes","Experiment-TF.osexp","C:\Users\Kristen\Documents\opPreviewExperiment-master\procedure","no","mono","no","24","no","black","no","yes","1050","legacy","10","15","C:/Users/Kristen/Documents/opPreviewExperiment-master/procedure/subject-15.csv","legacy","Kafkaesque Koffka","3.2.6","add","0","l","NA","NA","a","a","5132","NA","NA","28246","5132","2","981","legacy","small","1024","2","48000","-16","experiment","5_3_add_FI.jpg","15","odd","legacy","97606","NA","72251","NA","NA","1999","NA","2013","67118","97606","99562","30260","64644","2000","mousetracking operator preview effect","0","0","0","no","false","no","1680"
"negative","undefined","1","undefined","undefined","white","no","legacy","legacy","legacy","0","relative","undefined","undefined","11","NA","0","0","0","0","0","0","0","27","27","0","15","0","no","04/08/19 09:42:56","A simple template for the mouse-tracking paradigm","yes","Experiment-TF.osexp","C:\Users\Kristen\Documents\opPreviewExperiment-master\procedure","no","mono","no","24","no","black","no","yes","1050","legacy","11","15","C:/Users/Kristen/Documents/opPreviewExperiment-master/procedure/subject-15.csv","legacy","Kafkaesque Koffka","3.2.6","add","0","l","NA","NA","a","a","5132","NA","NA","28246","5132","2","998","legacy","large","1024","2","48000","-16","experiment","6_8_add_FNI.jpg","15","odd","legacy","99575","NA","72251","NA","NA","1999","NA","2013","67118","99575","101715","30260","64644","2000","mousetracking operator preview effect","0","0","0","no","false","no","1680"
"neutral","undefined","1","undefined","undefined","white","no","legacy","legacy","legacy","0","relative","undefined","undefined","12","NA","0","0","0","0","0","0","0","28","28","0","15","0","no","04/08/19 09:42:56","A simple template for the mouse-tracking paradigm","yes","Experiment-TF.osexp","C:\Users\Kristen\Documents\opPreviewExperiment-master\procedure","no","mono","no","24","no","black","no","yes","1050","legacy","12","15","C:/Users/Kristen/Documents/opPreviewExperiment-master/procedure/subject-15.csv","legacy","Kafkaesque Koffka","3.2.6","add","0","a","NA","NA","a","a","5132","NA","NA","28246","5132","2","954","legacy","large","1024","2","48000","-16","experiment","8_4_add_true.jpg","15","odd","legacy","101742","NA","72251","NA","NA","1999","NA","2013","67118","101742","103671","30260","64644","2000","mousetracking operator preview effect","0","0","0","no","true","no","1680"
"negative","undefined","1","undefined","undefined","white","no","legacy","legacy","legacy","0","relative","undefined","undefined","13","NA","0","0","0","0","0","0","0","29","29","0","15","0","no","04/08/19 09:42:56","A simple template for the mouse-tracking paradigm","yes","Experiment-TF.osexp","C:\Users\Kristen\Documents\opPreviewExperiment-master\procedure","no","mono","no","24","no","black","no","yes","1050","legacy","13","15","C:/Users/Kristen/Documents/opPreviewExperiment-master/procedure/subject-15.csv","legacy","Kafkaesque Koffka","3.2.6","mult","0","a","NA","NA","a","a","5132","NA","NA","28246","5132","2","1081","legacy","large","1024","2","48000","-16","experiment","4_9_mult_true.jpg","15","odd","legacy","103697","NA","72251","NA","NA","1999","NA","2013","67118","103698","105929","30260","64644","2000","mousetracking operator preview effect","0","0","0","no","true","no","1680"
"negative","undefined","1","undefined","undefined","white","no","legacy","legacy","legacy","0","relative","undefined","undefined","14","NA","0","0","0","0","0","0","0","30","30","0","15","0","no","04/08/19 09:42:56","A simple template for the mouse-tracking paradigm","yes","Experiment-TF.osexp","C:\Users\Kristen\Documents\opPreviewExperiment-master\procedure","no","mono","no","24","no","black","no","yes","1050","legacy","14","15","C:/Users/Kristen/Documents/opPreviewExperiment-master/procedure/subject-15.csv","legacy","Kafkaesque Koffka","3.2.6","mult","0","a","NA","NA","a","a","5132","NA","NA","28246","5132","2","1009","legacy","small","1024","2","48000","-16","experiment","2_7_mult_true.jpg","15","odd","legacy","105954","NA","72251","NA","NA","1999","NA","2013","67118","105954","108111","30260","64644","2000","mousetracking operator preview effect","0","0","0","no","true","no","1680"
"negative","undefined","0","undefined","undefined","white","no","legacy","legacy","legacy","0","relative","undefined","undefined","15","NA","0","0","0","0","0","0","0","31","31","0","15","0","no","04/08/19 09:42:56","A simple template for the mouse-tracking paradigm","yes","Experiment-TF.osexp","C:\Users\Kristen\Documents\opPreviewExperiment-master\procedure","no","mono","no","24","no","black","no","yes","1050","legacy","15","15","C:/Users/Kristen/Documents/opPreviewExperiment-master/procedure/subject-15.csv","legacy","Kafkaesque Koffka","3.2.6","add","0","l","NA","NA","a","a","5132","NA","NA","28246","5132","2","923","legacy","small","1024","2","48000","-16","experiment","2_7_add_true.jpg","15","odd","legacy","108132","NA","72251","NA","NA","1999","NA","2013","67118","108132","111218","30260","64644","2000","mousetracking operator preview effect","0","0","0","no","true","no","1680"
"negative","undefined","1","undefined","undefined","white","no","legacy","legacy","legacy","0","relative","undefined","undefined","16","NA","0","0","0","0","0","0","0","32","32","0","15","0","no","04/08/19 09:42:56","A simple template for the mouse-tracking paradigm","yes","Experiment-TF.osexp","C:\Users\Kristen\Documents\opPreviewExperiment-master\procedure","no","mono","no","24","no","black","no","yes","1050","legacy","16","15","C:/Users/Kristen/Documents/opPreviewExperiment-master/procedure/subject-15.csv","legacy","Kafkaesque Koffka","3.2.6","mult","0","a","NA","NA","a","a","5132","NA","NA","28246","5132","2","1599","legacy","large","1024","2","48000","-16","experiment","9_7_mult_true.jpg","15","odd","legacy","111257","NA","72251","NA","NA","1999","NA","2013","67118","111257","114014","30260","64644","2000","mousetracking operator preview effect","0","0","0","no","true","no","1680"
"neutral","undefined","1","undefined","undefined","white","no","legacy","legacy","legacy","0","relative","undefined","undefined","17","NA","0","0","0","0","0","0","0","33","33","0","15","0","no","04/08/19 09:42:56","A simple template for the mouse-tracking paradigm","yes","Experiment-TF.osexp","C:\Users\Kristen\Documents\opPreviewExperiment-master\procedure","no","mono","no","24","no","black","no","yes","1050","legacy","17","15","C:/Users/Kristen/Documents/opPreviewExperiment-master/procedure/subject-15.csv","legacy","Kafkaesque Koffka","3.2.6","add","0","l","NA","NA","a","a","5132","NA","NA","28246","5132","2","1463","legacy","small","1024","2","48000","-16","experiment","3_6_add_FNI.jpg","15","odd","legacy","114045","NA","72251","NA","NA","1999","NA","2013","67118","114045","116486","30260","64644","2000","mousetracking operator preview effect","0","0","0","no","false","no","1680"
"neutral","undefined","1","undefined","undefined","white","no","legacy","legacy","legacy","0","relative","undefined","undefined","18","NA","0","0","0","0","0","0","0","34","34","0","15","0","no","04/08/19 09:42:56","A simple template for the mouse-tracking paradigm","yes","Experiment-TF.osexp","C:\Users\Kristen\Documents\opPreviewExperiment-master\procedure","no","mono","no","24","no","black","no","yes","1050","legacy","18","15","C:/Users/Kristen/Documents/opPreviewExperiment-master/procedure/subject-15.csv","legacy","Kafkaesque Koffka","3.2.6","add","0","l","NA","NA","a","a","5132","NA","NA","28246","5132","2","958","legacy","large","1024","2","48000","-16","experiment","8_4_add_FNI.jpg","15","odd","legacy","116510","NA","72251","NA","NA","1999","NA","2013","67118","116510","118440","30260","64644","2000","mousetracking operator preview effect","0","0","0","no","false","no","1680"
"neutral","undefined","1","undefined","undefined","white","no","legacy","legacy","legacy","0","relative","undefined","undefined","19","NA","0","0","0","0","0","0","0","35","35","0","15","0","no","04/08/19 09:42:56","A simple template for the mouse-tracking paradigm","yes","Experiment-TF.osexp","C:\Users\Kristen\Documents\opPreviewExperiment-master\procedure","no","mono","no","24","no","black","no","yes","1050","legacy","19","15","C:/Users/Kristen/Documents/opPreviewExperiment-master/procedure/subject-15.csv","legacy","Kafkaesque Koffka","3.2.6","add","0","a","NA","NA","a","a","5132","NA","NA","28246","5132","2","1265","legacy","small","1024","2","48000","-16","experiment","5_3_add_true.jpg","15","odd","legacy","118468","NA","72251","NA","NA","1999","NA","2013","67118","118468","120696","30260","64644","2000","mousetracking operator preview effect","0","0","0","no","true","no","1680"
"negative","undefined","1","undefined","undefined","white","no","legacy","legacy","legacy","0","relative","undefined","undefined","20","NA","0","0","0","0","0","0","0","36","36","0","15","0","no","04/08/19 09:42:56","A simple template for the mouse-tracking paradigm","yes","Experiment-TF.osexp","C:\Users\Kristen\Documents\opPreviewExperiment-master\procedure","no","mono","no","24","no","black","no","yes","1050","legacy","20","15","C:/Users/Kristen/Documents/opPreviewExperiment-master/procedure/subject-15.csv","legacy","Kafkaesque Koffka","3.2.6","mult","0","l","NA","NA","a","a","5132","NA","NA","28246","5132","2","1115","legacy","large","1024","2","48000","-16","experiment","6_8_mult_FI.jpg","15","odd","legacy","120718","NA","72251","NA","NA","1999","NA","2013","67118","120718","122981","30260","64644","2000","mousetracking operator preview effect","0","0","0","no","false","no","1680"
"neutral","undefined","1","undefined","undefined","white","no","legacy","legacy","legacy","0","relative","undefined","undefined","21","NA","0","0","0","0","0","0","0","37","37","0","15","0","no","04/08/19 09:42:56","A simple template for the mouse-tracking paradigm","yes","Experiment-TF.osexp","C:\Users\Kristen\Documents\opPreviewExperiment-master\procedure","no","mono","no","24","no","black","no","yes","1050","legacy","21","15","C:/Users/Kristen/Documents/opPreviewExperiment-master/procedure/subject-15.csv","legacy","Kafkaesque Koffka","3.2.6","add","0","a","NA","NA","a","a","5132","NA","NA","28246","5132","2","1103","legacy","large","1024","2","48000","-16","experiment","4_9_add_true.jpg","15","odd","legacy","123002","NA","72251","NA","NA","1999","NA","2013","67118","123002","125068","30260","64644","2000","mousetracking operator preview effect","0","0","0","no","true","no","1680"
"neutral","undefined","1","undefined","undefined","white","no","legacy","legacy","legacy","0","relative","undefined","undefined","22","NA","0","0","0","0","0","0","0","38","38","0","15","0","no","04/08/19 09:42:56","A simple template for the mouse-tracking paradigm","yes","Experiment-TF.osexp","C:\Users\Kristen\Documents\opPreviewExperiment-master\procedure","no","mono","no","24","no","black","no","yes","1050","legacy","22","15","C:/Users/Kristen/Documents/opPreviewExperiment-master/procedure/subject-15.csv","legacy","Kafkaesque Koffka","3.2.6","mult","0","a","NA","NA","a","a","5132","NA","NA","28246","5132","2","1027","legacy","large","1024","2","48000","-16","experiment","9_7_mult_true.jpg","15","odd","legacy","125088","NA","72251","NA","NA","1999","NA","2013","67118","125088","127090","30260","64644","2000","mousetracking operator preview effect","0","0","0","no","true","no","1680"
"negative","undefined","1","undefined","undefined","white","no","legacy","legacy","legacy","0","relative","undefined","undefined","23","NA","0","0","0","0","0","0","0","39","39","0","15","0","no","04/08/19 09:42:56","A simple template for the mouse-tracking paradigm","yes","Experiment-TF.osexp","C:\Users\Kristen\Documents\opPreviewExperiment-master\procedure","no","mono","no","24","no","black","no","yes","1050","legacy","23","15","C:/Users/Kristen/Documents/opPreviewExperiment-master/procedure/subject-15.csv","legacy","Kafkaesque Koffka","3.2.6","mult","0","a","NA","NA","a","a","5132","NA","NA","28246","5132","2","1342","legacy","large","1024","2","48000","-16","experiment","6_8_mult_true.jpg","15","odd","legacy","127120","NA","72251","NA","NA","1999","NA","2013","67118","127120","129604","30260","64644","2000","mousetracking operator preview effect","0","0","0","no","true","no","1680"
"negative","undefined","1","undefined","undefined","white","no","legacy","legacy","legacy","0","relative","undefined","undefined","24","NA","0","0","0","0","0","0","0","40","40","0","15","0","no","04/08/19 09:42:56","A simple template for the mouse-tracking paradigm","yes","Experiment-TF.osexp","C:\Users\Kristen\Documents\opPreviewExperiment-master\procedure","no","mono","no","24","no","black","no","yes","1050","legacy","24","15","C:/Users/Kristen/Documents/opPreviewExperiment-master/procedure/subject-15.csv","legacy","Kafkaesque Koffka","3.2.6","add","0","a","NA","NA","a","a","5132","NA","NA","28246","5132","2","893","legacy","small","1024","2","48000","-16","experiment","5_3_add_true.jpg","15","odd","legacy","129617","NA","72251","NA","NA","1999","NA","2013","67118","129617","131657","30260","64644","2000","mousetracking operator preview effect","0","0","0","no","true","no","1680"
"negative","undefined","1","undefined","undefined","white","no","legacy","legacy","legacy","0","relative","undefined","undefined","25","NA","0","0","0","0","0","0","0","41","41","0","15","0","no","04/08/19 09:42:56","A simple template for the mouse-tracking paradigm","yes","Experiment-TF.osexp","C:\Users\Kristen\Documents\opPreviewExperiment-master\procedure","no","mono","no","24","no","black","no","yes","1050","legacy","25","15","C:/Users/Kristen/Documents/opPreviewExperiment-master/procedure/subject-15.csv","legacy","Kafkaesque Koffka","3.2.6","mult","0","l","NA","NA","a","a","5132","NA","NA","28246","5132","2","1034","legacy","small","1024","2","48000","-16","experiment","2_7_mult_FI.jpg","15","odd","legacy","131680","NA","72251","NA","NA","1999","NA","2013","67118","131680","133861","30260","64644","2000","mousetracking operator preview effect","0","0","0","no","false","no","1680"
"negative","undefined","1","undefined","undefined","white","no","legacy","legacy","legacy","0","relative","undefined","undefined","26","NA","0","0","0","0","0","0","0","42","42","0","15","0","no","04/08/19 09:42:56","A simple template for the mouse-tracking paradigm","yes","Experiment-TF.osexp","C:\Users\Kristen\Documents\opPreviewExperiment-master\procedure","no","mono","no","24","no","black","no","yes","1050","legacy","26","15","C:/Users/Kristen/Documents/opPreviewExperiment-master/procedure/subject-15.csv","legacy","Kafkaesque Koffka","3.2.6","add","0","l","NA","NA","a","a","5132","NA","NA","28246","5132","2","1131","legacy","small","1024","2","48000","-16","experiment","8_2_add_FI.jpg","15","odd","legacy","133892","NA","72251","NA","NA","1999","NA","2013","67118","133892","136168","30260","64644","2000","mousetracking operator preview effect","0","0","0","no","false","no","1680"
"neutral","undefined","1","undefined","undefined","white","no","legacy","legacy","legacy","0","relative","undefined","undefined","27","NA","0","0","0","0","0","0","0","43","43","0","15","0","no","04/08/19 09:42:56","A simple template for the mouse-tracking paradigm","yes","Experiment-TF.osexp","C:\Users\Kristen\Documents\opPreviewExperiment-master\procedure","no","mono","no","24","no","black","no","yes","1050","legacy","27","15","C:/Users/Kristen/Documents/opPreviewExperiment-master/procedure/subject-15.csv","legacy","Kafkaesque Koffka","3.2.6","add","0","a","NA","NA","a","a","5132","NA","NA","28246","5132","2","886","legacy","small","1024","2","48000","-16","experiment","3_6_add_true.jpg","15","odd","legacy","136188","NA","72251","NA","NA","1999","NA","2013","67118","136188","138054","30260","64644","2000","mousetracking operator preview effect","0","0","0","no","true","no","1680"
"neutral","undefined","1","undefined","undefined","white","no","legacy","legacy","legacy","0","relative","undefined","undefined","28","NA","0","0","0","0","0","0","0","44","44","0","15","0","no","04/08/19 09:42:56","A simple template for the mouse-tracking paradigm","yes","Experiment-TF.osexp","C:\Users\Kristen\Documents\opPreviewExperiment-master\procedure","no","mono","no","24","no","black","no","yes","1050","legacy","28","15","C:/Users/Kristen/Documents/opPreviewExperiment-master/procedure/subject-15.csv","legacy","Kafkaesque Koffka","3.2.6","mult","0","l","NA","NA","a","a","5132","NA","NA","28246","5132","2","1250","legacy","small","1024","2","48000","-16","experiment","5_3_mult_FI.jpg","15","odd","legacy","138078","NA","72251","NA","NA","1999","NA","2013","67118","138078","140304","30260","64644","2000","mousetracking operator preview effect","0","0","0","no","false","no","1680"
"negative","undefined","1","undefined","undefined","white","no","legacy","legacy","legacy","0","relative","undefined","undefined","29","NA","0","0","0","0","0","0","0","45","45","0","15","0","no","04/08/19 09:42:56","A simple template for the mouse-tracking paradigm","yes","Experiment-TF.osexp","C:\Users\Kristen\Documents\opPreviewExperiment-master\procedure","no","mono","no","24","no","black","no","yes","1050","legacy","29","15","C:/Users/Kristen/Documents/opPreviewExperiment-master/procedure/subject-15.csv","legacy","Kafkaesque Koffka","3.2.6","mult","0","l","NA","NA","a","a","5132","NA","NA","28246","5132","2","939","legacy","small","1024","2","48000","-16","experiment","2_7_mult_FNI.jpg","15","odd","legacy","140316","NA","72251","NA","NA","1999","NA","2013","67118","140316","142405","30260","64644","2000","mousetracking operator preview effect","0","0","0","no","false","no","1680"
"neutral","undefined","1","undefined","undefined","white","no","legacy","legacy","legacy","0","relative","undefined","undefined","30","NA","0","0","0","0","0","0","0","46","46","0","15","0","no","04/08/19 09:42:56","A simple template for the mouse-tracking paradigm","yes","Experiment-TF.osexp","C:\Users\Kristen\Documents\opPreviewExperiment-master\procedure","no","mono","no","24","no","black","no","yes","1050","legacy","30","15","C:/Users/Kristen/Documents/opPreviewExperiment-master/procedure/subject-15.csv","legacy","Kafkaesque Koffka","3.2.6","add","0","a","NA","NA","a","a","5132","NA","NA","28246","5132","2","808","legacy","small","1024","2","48000","-16","experiment","3_6_add_true.jpg","15","odd","legacy","142425","NA","72251","NA","NA","1999","NA","2013","67118","142425","144210","30260","64644","2000","mousetracking operator preview effect","0","0","0","no","true","no","1680"
"neutral","undefined","1","undefined","undefined","white","no","legacy","legacy","legacy","0","relative","undefined","undefined","31","NA","0","0","0","0","0","0","0","47","47","0","15","0","no","04/08/19 09:42:56","A simple template for the mouse-tracking paradigm","yes","Experiment-TF.osexp","C:\Users\Kristen\Documents\opPreviewExperiment-master\procedure","no","mono","no","24","no","black","no","yes","1050","legacy","31","15","C:/Users/Kristen/Documents/opPreviewExperiment-master/procedure/subject-15.csv","legacy","Kafkaesque Koffka","3.2.6","add","0","a","NA","NA","a","a","5132","NA","NA","28246","5132","2","951","legacy","large","1024","2","48000","-16","experiment","6_8_add_true.jpg","15","odd","legacy","144240","NA","72251","NA","NA","1999","NA","2013","67118","144240","146171","30260","64644","2000","mousetracking operator preview effect","0","0","0","no","true","no","1680"
"neutral","undefined","1","undefined","undefined","white","no","legacy","legacy","legacy","0","relative","undefined","undefined","32","NA","0","0","0","0","0","0","0","48","48","0","15","0","no","04/08/19 09:42:56","A simple template for the mouse-tracking paradigm","yes","Experiment-TF.osexp","C:\Users\Kristen\Documents\opPreviewExperiment-master\procedure","no","mono","no","24","no","black","no","yes","1050","legacy","32","15","C:/Users/Kristen/Documents/opPreviewExperiment-master/procedure/subject-15.csv","legacy","Kafkaesque Koffka","3.2.6","add","0","a","NA","NA","a","a","5132","NA","NA","28246","5132","2","655","legacy","small","1024","2","48000","-16","experiment","2_7_add_true.jpg","15","odd","legacy","146200","NA","72251","NA","NA","1999","NA","2013","67118","146200","147834","30260","64644","2000","mousetracking operator preview effect","0","0","0","no","true","no","1680"
"negative","undefined","1","undefined","undefined","white","no","legacy","legacy","legacy","0","relative","undefined","undefined","33","NA","0","0","0","0","0","0","0","49","49","0","15","0","no","04/08/19 09:42:56","A simple template for the mouse-tracking paradigm","yes","Experiment-TF.osexp","C:\Users\Kristen\Documents\opPreviewExperiment-master\procedure","no","mono","no","24","no","black","no","yes","1050","legacy","33","15","C:/Users/Kristen/Documents/opPreviewExperiment-master/procedure/subject-15.csv","legacy","Kafkaesque Koffka","3.2.6","add","0","l","NA","NA","a","a","5132","NA","NA","28246","5132","2","926","legacy","small","1024","2","48000","-16","experiment","5_3_add_FI.jpg","15","odd","legacy","147861","NA","72251","NA","NA","1999","NA","2013","67118","147861","149941","30260","64644","2000","mousetracking operator preview effect","0","0","0","no","false","no","1680"
"negative","undefined","1","undefined","undefined","white","no","legacy","legacy","legacy","0","relative","undefined","undefined","34","NA","0","0","0","0","0","0","0","50","50","0","15","0","no","04/08/19 09:42:56","A simple template for the mouse-tracking paradigm","yes","Experiment-TF.osexp","C:\Users\Kristen\Documents\opPreviewExperiment-master\procedure","no","mono","no","24","no","black","no","yes","1050","legacy","34","15","C:/Users/Kristen/Documents/opPreviewExperiment-master/procedure/subject-15.csv","legacy","Kafkaesque Koffka","3.2.6","mult","0","l","NA","NA","a","a","5132","NA","NA","28246","5132","2","1447","legacy","small","1024","2","48000","-16","experiment","8_2_mult_FNI.jpg","15","odd","legacy","149966","NA","72251","NA","NA","1999","NA","2013","67118","149966","152565","30260","64644","2000","mousetracking operator preview effect","0","0","0","no","false","no","1680"
"neutral","undefined","1","undefined","undefined","white","no","legacy","legacy","legacy","0","relative","undefined","undefined","35","NA","0","0","0","0","0","0","0","51","51","0","15","0","no","04/08/19 09:42:56","A simple template for the mouse-tracking paradigm","yes","Experiment-TF.osexp","C:\Users\Kristen\Documents\opPreviewExperiment-master\procedure","no","mono","no","24","no","black","no","yes","1050","legacy","35","15","C:/Users/Kristen/Documents/opPreviewExperiment-master/procedure/subject-15.csv","legacy","Kafkaesque Koffka","3.2.6","add","0","l","NA","NA","a","a","5132","NA","NA","28246","5132","2","1257","legacy","small","1024","2","48000","-16","experiment","3_6_add_FI.jpg","15","odd","legacy","152593","NA","72251","NA","NA","1999","NA","2013","67118","152594","154829","30260","64644","2000","mousetracking operator preview effect","0","0","0","no","false","no","1680"
"negative","undefined","1","undefined","undefined","white","no","legacy","legacy","legacy","0","relative","undefined","undefined","36","NA","0","0","0","0","0","0","0","52","52","0","15","0","no","04/08/19 09:42:56","A simple template for the mouse-tracking paradigm","yes","Experiment-TF.osexp","C:\Users\Kristen\Documents\opPreviewExperiment-master\procedure","no","mono","no","24","no","black","no","yes","1050","legacy","36","15","C:/Users/Kristen/Documents/opPreviewExperiment-master/procedure/subject-15.csv","legacy","Kafkaesque Koffka","3.2.6","mult","0","a","NA","NA","a","a","5132","NA","NA","28246","5132","2","719","legacy","small","1024","2","48000","-16","experiment","5_3_mult_true.jpg","15","odd","legacy","154860","NA","72251","NA","NA","1999","NA","2013","67118","154860","156729","30260","64644","2000","mousetracking operator preview effect","0","0","0","no","true","no","1680"
"negative","undefined","1","undefined","undefined","white","no","legacy","legacy","legacy","0","relative","undefined","undefined","37","NA","0","0","0","0","0","0","0","53","53","0","15","0","no","04/08/19 09:42:56","A simple template for the mouse-tracking paradigm","yes","Experiment-TF.osexp","C:\Users\Kristen\Documents\opPreviewExperiment-master\procedure","no","mono","no","24","no","black","no","yes","1050","legacy","37","15","C:/Users/Kristen/Documents/opPreviewExperiment-master/procedure/subject-15.csv","legacy","Kafkaesque Koffka","3.2.6","mult","0","a","NA","NA","a","a","5132","NA","NA","28246","5132","2","680","legacy","small","1024","2","48000","-16","experiment","5_3_mult_true.jpg","15","odd","legacy","156756","NA","72251","NA","NA","1999","NA","2013","67118","156756","158583","30260","64644","2000","mousetracking operator preview effect","0","0","0","no","true","no","1680"
"negative","undefined","1","undefined","undefined","white","no","legacy","legacy","legacy","0","relative","undefined","undefined","38","NA","0","0","0","0","0","0","0","54","54","0","15","0","no","04/08/19 09:42:56","A simple template for the mouse-tracking paradigm","yes","Experiment-TF.osexp","C:\Users\Kristen\Documents\opPreviewExperiment-master\procedure","no","mono","no","24","no","black","no","yes","1050","legacy","38","15","C:/Users/Kristen/Documents/opPreviewExperiment-master/procedure/subject-15.csv","legacy","Kafkaesque Koffka","3.2.6","mult","0","a","NA","NA","a","a","5132","NA","NA","28246","5132","2","825","legacy","small","1024","2","48000","-16","experiment","2_7_mult_true.jpg","15","odd","legacy","158609","NA","72251","NA","NA","1999","NA","2013","67118","158609","160579","30260","64644","2000","mousetracking operator preview effect","0","0","0","no","true","no","1680"
"negative","undefined","1","undefined","undefined","white","no","legacy","legacy","legacy","0","relative","undefined","undefined","39","NA","0","0","0","0","0","0","0","55","55","0","15","0","no","04/08/19 09:42:56","A simple template for the mouse-tracking paradigm","yes","Experiment-TF.osexp","C:\Users\Kristen\Documents\opPreviewExperiment-master\procedure","no","mono","no","24","no","black","no","yes","1050","legacy","39","15","C:/Users/Kristen/Documents/opPreviewExperiment-master/procedure/subject-15.csv","legacy","Kafkaesque Koffka","3.2.6","add","0","a","NA","NA","a","a","5132","NA","NA","28246","5132","2","1338","legacy","small","1024","2","48000","-16","experiment","8_2_add_true.jpg","15","odd","legacy","160604","NA","72251","NA","NA","1999","NA","2013","67118","160604","163093","30260","64644","2000","mousetracking operator preview effect","0","0","0","no","true","no","1680"
"negative","undefined","1","undefined","undefined","white","no","legacy","legacy","legacy","0","relative","undefined","undefined","40","NA","0","0","0","0","0","0","0","56","56","0","15","0","no","04/08/19 09:42:56","A simple template for the mouse-tracking paradigm","yes","Experiment-TF.osexp","C:\Users\Kristen\Documents\opPreviewExperiment-master\procedure","no","mono","no","24","no","black","no","yes","1050","legacy","40","15","C:/Users/Kristen/Documents/opPreviewExperiment-master/procedure/subject-15.csv","legacy","Kafkaesque Koffka","3.2.6","mult","0","l","NA","NA","a","a","5132","NA","NA","28246","5132","2","1198","legacy","small","1024","2","48000","-16","experiment","3_6_mult_FI.jpg","15","odd","legacy","163114","NA","72251","NA","NA","1999","NA","2013","67118","163114","165460","30260","64644","2000","mousetracking operator preview effect","0","0","0","no","false","no","1680"
"neutral","undefined","1","undefined","undefined","white","no","legacy","legacy","legacy","0","relative","undefined","undefined","41","NA","0","0","0","0","0","0","0","57","57","0","15","0","no","04/08/19 09:42:56","A simple template for the mouse-tracking paradigm","yes","Experiment-TF.osexp","C:\Users\Kristen\Documents\opPreviewExperiment-master\procedure","no","mono","no","24","no","black","no","yes","1050","legacy","41","15","C:/Users/Kristen/Documents/opPreviewExperiment-master/procedure/subject-15.csv","legacy","Kafkaesque Koffka","3.2.6","add","0","a","NA","NA","a","a","5132","NA","NA","28246","5132","2","1878","legacy","large","1024","2","48000","-16","experiment","9_7_add_true.jpg","15","odd","legacy","165490","NA","72251","NA","NA","1999","NA","2013","67118","165490","168344","30260","64644","2000","mousetracking operator preview effect","0","0","0","no","true","no","1680"
"neutral","undefined","1","undefined","undefined","white","no","legacy","legacy","legacy","0","relative","undefined","undefined","42","NA","0","0","0","0","0","0","0","58","58","0","15","0","no","04/08/19 09:42:56","A simple template for the mouse-tracking paradigm","yes","Experiment-TF.osexp","C:\Users\Kristen\Documents\opPreviewExperiment-master\procedure","no","mono","no","24","no","black","no","yes","1050","legacy","42","15","C:/Users/Kristen/Documents/opPreviewExperiment-master/procedure/subject-15.csv","legacy","Kafkaesque Koffka","3.2.6","add","0","l","NA","NA","a","a","5132","NA","NA","28246","5132","2","1388","legacy","small","1024","2","48000","-16","experiment","8_2_add_FI.jpg","15","odd","legacy","168364","NA","72251","NA","NA","1999","NA","2013","67118","168364","170713","30260","64644","2000","mousetracking operator preview effect","0","0","0","no","false","no","1680"
"neutral","undefined","1","undefined","undefined","white","no","legacy","legacy","legacy","0","relative","undefined","undefined","43","NA","0","0","0","0","0","0","0","59","59","0","15","0","no","04/08/19 09:42:56","A simple template for the mouse-tracking paradigm","yes","Experiment-TF.osexp","C:\Users\Kristen\Documents\opPreviewExperiment-master\procedure","no","mono","no","24","no","black","no","yes","1050","legacy","43","15","C:/Users/Kristen/Documents/opPreviewExperiment-master/procedure/subject-15.csv","legacy","Kafkaesque Koffka","3.2.6","add","0","l","NA","NA","a","a","5132","NA","NA","28246","5132","2","1029","legacy","small","1024","2","48000","-16","experiment","2_7_add_FNI.jpg","15","odd","legacy","170727","NA","72251","NA","NA","1999","NA","2013","67118","170727","172731","30260","64644","2000","mousetracking operator preview effect","0","0","0","no","false","no","1680"
"negative","undefined","1","undefined","undefined","white","no","legacy","legacy","legacy","0","relative","undefined","undefined","44","NA","0","0","0","0","0","0","0","60","60","0","15","0","no","04/08/19 09:42:56","A simple template for the mouse-tracking paradigm","yes","Experiment-TF.osexp","C:\Users\Kristen\Documents\opPreviewExperiment-master\procedure","no","mono","no","24","no","black","no","yes","1050","legacy","44","15","C:/Users/Kristen/Documents/opPreviewExperiment-master/procedure/subject-15.csv","legacy","Kafkaesque Koffka","3.2.6","add","0","l","NA","NA","a","a","5132","NA","NA","28246","5132","2","1267","legacy","large","1024","2","48000","-16","experiment","9_7_add_FI.jpg","15","odd","legacy","172754","NA","72251","NA","NA","1999","NA","2013","67118","172754","175172","30260","64644","2000","mousetracking operator preview effect","0","0","0","no","false","no","1680"
"neutral","undefined","1","undefined","undefined","white","no","legacy","legacy","legacy","0","relative","undefined","undefined","45","NA","0","0","0","0","0","0","0","61","61","0","15","0","no","04/08/19 09:42:56","A simple template for the mouse-tracking paradigm","yes","Experiment-TF.osexp","C:\Users\Kristen\Documents\opPreviewExperiment-master\procedure","no","mono","no","24","no","black","no","yes","1050","legacy","45","15","C:/Users/Kristen/Documents/opPreviewExperiment-master/procedure/subject-15.csv","legacy","Kafkaesque Koffka","3.2.6","add","0","l","NA","NA","a","a","5132","NA","NA","28246","5132","2","1024","legacy","small","1024","2","48000","-16","experiment","5_3_add_FNI.jpg","15","odd","legacy","175194","NA","72251","NA","NA","1999","NA","2013","67118","175194","177192","30260","64644","2000","mousetracking operator preview effect","0","0","0","no","false","no","1680"
"neutral","undefined","1","undefined","undefined","white","no","legacy","legacy","legacy","0","relative","undefined","undefined","46","NA","0","0","0","0","0","0","0","62","62","0","15","0","no","04/08/19 09:42:56","A simple template for the mouse-tracking paradigm","yes","Experiment-TF.osexp","C:\Users\Kristen\Documents\opPreviewExperiment-master\procedure","no","mono","no","24","no","black","no","yes","1050","legacy","46","15","C:/Users/Kristen/Documents/opPreviewExperiment-master/procedure/subject-15.csv","legacy","Kafkaesque Koffka","3.2.6","mult","0","l","NA","NA","a","a","5132","NA","NA","28246","5132","2","1295","legacy","small","1024","2","48000","-16","experiment","8_2_mult_FI.jpg","15","odd","legacy","177214","NA","72251","NA","NA","1999","NA","2013","67118","177214","179472","30260","64644","2000","mousetracking operator preview effect","0","0","0","no","false","no","1680"
"negative","undefined","1","undefined","undefined","white","no","legacy","legacy","legacy","0","relative","undefined","undefined","47","NA","0","0","0","0","0","0","0","63","63","0","15","0","no","04/08/19 09:42:56","A simple template for the mouse-tracking paradigm","yes","Experiment-TF.osexp","C:\Users\Kristen\Documents\opPreviewExperiment-master\procedure","no","mono","no","24","no","black","no","yes","1050","legacy","47","15","C:/Users/Kristen/Documents/opPreviewExperiment-master/procedure/subject-15.csv","legacy","Kafkaesque Koffka","3.2.6","add","0","l","NA","NA","a","a","5132","NA","NA","28246","5132","2","1086","legacy","small","1024","2","48000","-16","experiment","2_7_add_FI.jpg","15","odd","legacy","179493","NA","72251","NA","NA","1999","NA","2013","67118","179493","181717","30260","64644","2000","mousetracking operator preview effect","0","0","0","no","false","no","1680"
"neutral","undefined","0","undefined","undefined","white","no","legacy","legacy","legacy","0","relative","undefined","undefined","48","NA","0","0","0","0","0","0","0","64","64","0","15","0","no","04/08/19 09:42:56","A simple template for the mouse-tracking paradigm","yes","Experiment-TF.osexp","C:\Users\Kristen\Documents\opPreviewExperiment-master\procedure","no","mono","no","24","no","black","no","yes","1050","legacy","48","15","C:/Users/Kristen/Documents/opPreviewExperiment-master/procedure/subject-15.csv","legacy","Kafkaesque Koffka","3.2.6","mult","0","a","NA","NA","a","a","5132","NA","NA","28246","5132","2","2922","legacy","large","1024","2","48000","-16","experiment","9_7_mult_FNI.jpg","15","odd","legacy","181738","NA","72251","NA","NA","1999","NA","2013","67118","181738","186651","30260","64644","2000","mousetracking operator preview effect","0","0","0","no","false","no","1680"
"neutral","undefined","1","undefined","undefined","white","no","legacy","legacy","legacy","0","relative","undefined","undefined","49","NA","0","0","0","0","0","0","0","65","65","0","15","0","no","04/08/19 09:42:56","A simple template for the mouse-tracking paradigm","yes","Experiment-TF.osexp","C:\Users\Kristen\Documents\opPreviewExperiment-master\procedure","no","mono","no","24","no","black","no","yes","1050","legacy","49","15","C:/Users/Kristen/Documents/opPreviewExperiment-master/procedure/subject-15.csv","legacy","Kafkaesque Koffka","3.2.6","add","0","a","NA","NA","a","a","5132","NA","NA","28246","5132","2","1292","legacy","small","1024","2","48000","-16","experiment","8_2_add_true.jpg","15","odd","legacy","186689","NA","72251","NA","NA","1999","NA","2013","67118","186690","188957","30260","64644","2000","mousetracking operator preview effect","0","0","0","no","true","no","1680"
"neutral","undefined","1","undefined","undefined","white","no","legacy","legacy","legacy","0","relative","undefined","undefined","50","NA","0","0","0","0","0","0","0","66","66","0","15","0","no","04/08/19 09:42:56","A simple template for the mouse-tracking paradigm","yes","Experiment-TF.osexp","C:\Users\Kristen\Documents\opPreviewExperiment-master\procedure","no","mono","no","24","no","black","no","yes","1050","legacy","50","15","C:/Users/Kristen/Documents/opPreviewExperiment-master/procedure/subject-15.csv","legacy","Kafkaesque Koffka","3.2.6","mult","0","a","NA","NA","a","a","5132","NA","NA","28246","5132","2","693","legacy","small","1024","2","48000","-16","experiment","5_3_mult_true.jpg","15","odd","legacy","188985","NA","72251","NA","NA","1999","NA","2013","67118","188985","190648","30260","64644","2000","mousetracking operator preview effect","0","0","0","no","true","no","1680"
"negative","undefined","1","undefined","undefined","white","no","legacy","legacy","legacy","0","relative","undefined","undefined","51","NA","0","0","0","0","0","0","0","67","67","0","15","0","no","04/08/19 09:42:56","A simple template for the mouse-tracking paradigm","yes","Experiment-TF.osexp","C:\Users\Kristen\Documents\opPreviewExperiment-master\procedure","no","mono","no","24","no","black","no","yes","1050","legacy","51","15","C:/Users/Kristen/Documents/opPreviewExperiment-master/procedure/subject-15.csv","legacy","Kafkaesque Koffka","3.2.6","add","0","a","NA","NA","a","a","5132","NA","NA","28246","5132","2","718","legacy","small","1024","2","48000","-16","experiment","8_2_add_true.jpg","15","odd","legacy","190663","NA","72251","NA","NA","1999","NA","2013","67118","190663","192530","30260","64644","2000","mousetracking operator preview effect","0","0","0","no","true","no","1680"
"neutral","undefined","1","undefined","undefined","white","no","legacy","legacy","legacy","0","relative","undefined","undefined","52","NA","0","0","0","0","0","0","0","68","68","0","15","0","no","04/08/19 09:42:56","A simple template for the mouse-tracking paradigm","yes","Experiment-TF.osexp","C:\Users\Kristen\Documents\opPreviewExperiment-master\procedure","no","mono","no","24","no","black","no","yes","1050","legacy","52","15","C:/Users/Kristen/Documents/opPreviewExperiment-master/procedure/subject-15.csv","legacy","Kafkaesque Koffka","3.2.6","mult","0","l","NA","NA","a","a","5132","NA","NA","28246","5132","2","1143","legacy","small","1024","2","48000","-16","experiment","3_6_mult_FNI.jpg","15","odd","legacy","192555","NA","72251","NA","NA","1999","NA","2013","67118","192555","194675","30260","64644","2000","mousetracking operator preview effect","0","0","0","no","false","no","1680"
"neutral","undefined","1","undefined","undefined","white","no","legacy","legacy","legacy","0","relative","undefined","undefined","53","NA","0","0","0","0","0","0","0","69","69","0","15","0","no","04/08/19 09:42:56","A simple template for the mouse-tracking paradigm","yes","Experiment-TF.osexp","C:\Users\Kristen\Documents\opPreviewExperiment-master\procedure","no","mono","no","24","no","black","no","yes","1050","legacy","53","15","C:/Users/Kristen/Documents/opPreviewExperiment-master/procedure/subject-15.csv","legacy","Kafkaesque Koffka","3.2.6","mult","0","a","NA","NA","a","a","5132","NA","NA","28246","5132","2","1453","legacy","small","1024","2","48000","-16","experiment","8_2_mult_true.jpg","15","odd","legacy","194700","NA","72251","NA","NA","1999","NA","2013","67118","194700","197128","30260","64644","2000","mousetracking operator preview effect","0","0","0","no","true","no","1680"
"neutral","undefined","1","undefined","undefined","white","no","legacy","legacy","legacy","0","relative","undefined","undefined","54","NA","0","0","0","0","0","0","0","70","70","0","15","0","no","04/08/19 09:42:56","A simple template for the mouse-tracking paradigm","yes","Experiment-TF.osexp","C:\Users\Kristen\Documents\opPreviewExperiment-master\procedure","no","mono","no","24","no","black","no","yes","1050","legacy","54","15","C:/Users/Kristen/Documents/opPreviewExperiment-master/procedure/subject-15.csv","legacy","Kafkaesque Koffka","3.2.6","mult","0","l","NA","NA","a","a","5132","NA","NA","28246","5132","2","1092","legacy","large","1024","2","48000","-16","experiment","4_9_mult_FNI.jpg","15","odd","legacy","197149","NA","72251","NA","NA","1999","NA","2013","67118","197149","199218","30260","64644","2000","mousetracking operator preview effect","0","0","0","no","false","no","1680"
"negative","undefined","1","undefined","undefined","white","no","legacy","legacy","legacy","0","relative","undefined","undefined","55","NA","0","0","0","0","0","0","0","71","71","0","15","0","no","04/08/19 09:42:56","A simple template for the mouse-tracking paradigm","yes","Experiment-TF.osexp","C:\Users\Kristen\Documents\opPreviewExperiment-master\procedure","no","mono","no","24","no","black","no","yes","1050","legacy","55","15","C:/Users/Kristen/Documents/opPreviewExperiment-master/procedure/subject-15.csv","legacy","Kafkaesque Koffka","3.2.6","mult","0","l","NA","NA","a","a","5132","NA","NA","28246","5132","2","1270","legacy","large","1024","2","48000","-16","experiment","6_8_mult_FNI.jpg","15","odd","legacy","199238","NA","72251","NA","NA","1999","NA","2013","67118","199238","201637","30260","64644","2000","mousetracking operator preview effect","0","0","0","no","false","no","1680"
"negative","undefined","1","undefined","undefined","white","no","legacy","legacy","legacy","0","relative","undefined","undefined","56","NA","0","0","0","0","0","0","0","72","72","0","15","0","no","04/08/19 09:42:56","A simple template for the mouse-tracking paradigm","yes","Experiment-TF.osexp","C:\Users\Kristen\Documents\opPreviewExperiment-master\procedure","no","mono","no","24","no","black","no","yes","1050","legacy","56","15","C:/Users/Kristen/Documents/opPreviewExperiment-master/procedure/subject-15.csv","legacy","Kafkaesque Koffka","3.2.6","add","0","l","NA","NA","a","a","5132","NA","NA","28246","5132","2","1102","legacy","large","1024","2","48000","-16","experiment","8_4_add_FI.jpg","15","odd","legacy","201664","NA","72251","NA","NA","1999","NA","2013","67118","201664","203919","30260","64644","2000","mousetracking operator preview effect","0","0","0","no","false","no","1680"
"negative","undefined","1","undefined","undefined","white","no","legacy","legacy","legacy","0","relative","undefined","undefined","57","NA","0","0","0","0","0","0","0","73","73","0","15","0","no","04/08/19 09:42:56","A simple template for the mouse-tracking paradigm","yes","Experiment-TF.osexp","C:\Users\Kristen\Documents\opPreviewExperiment-master\procedure","no","mono","no","24","no","black","no","yes","1050","legacy","57","15","C:/Users/Kristen/Documents/opPreviewExperiment-master/procedure/subject-15.csv","legacy","Kafkaesque Koffka","3.2.6","add","0","l","NA","NA","a","a","5132","NA","NA","28246","5132","2","1869","legacy","large","1024","2","48000","-16","experiment","4_9_add_FNI.jpg","15","odd","legacy","203940","NA","72251","NA","NA","1999","NA","2013","67118","203940","206954","30260","64644","2000","mousetracking operator preview effect","0","0","0","no","false","no","1680"
"negative","undefined","1","undefined","undefined","white","no","legacy","legacy","legacy","0","relative","undefined","undefined","58","NA","0","0","0","0","0","0","0","74","74","0","15","0","no","04/08/19 09:42:56","A simple template for the mouse-tracking paradigm","yes","Experiment-TF.osexp","C:\Users\Kristen\Documents\opPreviewExperiment-master\procedure","no","mono","no","24","no","black","no","yes","1050","legacy","58","15","C:/Users/Kristen/Documents/opPreviewExperiment-master/procedure/subject-15.csv","legacy","Kafkaesque Koffka","3.2.6","mult","0","a","NA","NA","a","a","5132","NA","NA","28246","5132","2","966","legacy","small","1024","2","48000","-16","experiment","8_2_mult_true.jpg","15","odd","legacy","206986","NA","72251","NA","NA","1999","NA","2013","67118","206986","209103","30260","64644","2000","mousetracking operator preview effect","0","0","0","no","true","no","1680"
"negative","undefined","1","undefined","undefined","white","no","legacy","legacy","legacy","0","relative","undefined","undefined","59","NA","0","0","0","0","0","0","0","75","75","0","15","0","no","04/08/19 09:42:56","A simple template for the mouse-tracking paradigm","yes","Experiment-TF.osexp","C:\Users\Kristen\Documents\opPreviewExperiment-master\procedure","no","mono","no","24","no","black","no","yes","1050","legacy","59","15","C:/Users/Kristen/Documents/opPreviewExperiment-master/procedure/subject-15.csv","legacy","Kafkaesque Koffka","3.2.6","mult","0","l","NA","NA","a","a","5132","NA","NA","28246","5132","2","1515","legacy","large","1024","2","48000","-16","experiment","8_4_mult_FI.jpg","15","odd","legacy","209133","NA","72251","NA","NA","1999","NA","2013","67118","209133","211777","30260","64644","2000","mousetracking operator preview effect","0","0","0","no","false","no","1680"
"neutral","undefined","1","undefined","undefined","white","no","legacy","legacy","legacy","0","relative","undefined","undefined","60","NA","0","0","0","0","0","0","0","76","76","0","15","0","no","04/08/19 09:42:56","A simple template for the mouse-tracking paradigm","yes","Experiment-TF.osexp","C:\Users\Kristen\Documents\opPreviewExperiment-master\procedure","no","mono","no","24","no","black","no","yes","1050","legacy","60","15","C:/Users/Kristen/Documents/opPreviewExperiment-master/procedure/subject-15.csv","legacy","Kafkaesque Koffka","3.2.6","add","0","l","NA","NA","a","a","5132","NA","NA","28246","5132","2","1109","legacy","large","1024","2","48000","-16","experiment","6_8_add_FI.jpg","15","odd","legacy","211804","NA","72251","NA","NA","1999","NA","2013","67118","211804","213889","30260","64644","2000","mousetracking operator preview effect","0","0","0","no","false","no","1680"
"neutral","undefined","1","undefined","undefined","white","no","legacy","legacy","legacy","0","relative","undefined","undefined","61","NA","0","0","0","0","0","0","0","77","77","0","15","0","no","04/08/19 09:42:56","A simple template for the mouse-tracking paradigm","yes","Experiment-TF.osexp","C:\Users\Kristen\Documents\opPreviewExperiment-master\procedure","no","mono","no","24","no","black","no","yes","1050","legacy","61","15","C:/Users/Kristen/Documents/opPreviewExperiment-master/procedure/subject-15.csv","legacy","Kafkaesque Koffka","3.2.6","mult","0","l","NA","NA","a","a","5132","NA","NA","28246","5132","2","1040","legacy","large","1024","2","48000","-16","experiment","9_7_mult_FI.jpg","15","odd","legacy","213914","NA","72251","NA","NA","1999","NA","2013","67118","213914","215936","30260","64644","2000","mousetracking operator preview effect","0","0","0","no","false","no","1680"
"negative","undefined","1","undefined","undefined","white","no","legacy","legacy","legacy","0","relative","undefined","undefined","62","NA","0","0","0","0","0","0","0","78","78","0","15","0","no","04/08/19 09:42:56","A simple template for the mouse-tracking paradigm","yes","Experiment-TF.osexp","C:\Users\Kristen\Documents\opPreviewExperiment-master\procedure","no","mono","no","24","no","black","no","yes","1050","legacy","62","15","C:/Users/Kristen/Documents/opPreviewExperiment-master/procedure/subject-15.csv","legacy","Kafkaesque Koffka","3.2.6","add","0","l","NA","NA","a","a","5132","NA","NA","28246","5132","2","2222","legacy","small","1024","2","48000","-16","experiment","3_6_add_FI.jpg","15","odd","legacy","215966","NA","72251","NA","NA","1999","NA","2013","67118","215966","219339","30260","64644","2000","mousetracking operator preview effect","0","0","0","no","false","no","1680"
"neutral","undefined","1","undefined","undefined","white","no","legacy","legacy","legacy","0","relative","undefined","undefined","63","NA","0","0","0","0","0","0","0","79","79","0","15","0","no","04/08/19 09:42:56","A simple template for the mouse-tracking paradigm","yes","Experiment-TF.osexp","C:\Users\Kristen\Documents\opPreviewExperiment-master\procedure","no","mono","no","24","no","black","no","yes","1050","legacy","63","15","C:/Users/Kristen/Documents/opPreviewExperiment-master/procedure/subject-15.csv","legacy","Kafkaesque Koffka","3.2.6","mult","0","a","NA","NA","a","a","5132","NA","NA","28246","5132","2","1030","legacy","large","1024","2","48000","-16","experiment","8_4_mult_true.jpg","15","odd","legacy","219354","NA","72251","NA","NA","1999","NA","2013","67118","219354","221359","30260","64644","2000","mousetracking operator preview effect","0","0","0","no","true","no","1680"
"neutral","undefined","1","undefined","undefined","white","no","legacy","legacy","legacy","0","relative","undefined","undefined","64","NA","0","0","0","0","0","0","0","80","80","0","15","0","no","04/08/19 09:42:56","A simple template for the mouse-tracking paradigm","yes","Experiment-TF.osexp","C:\Users\Kristen\Documents\opPreviewExperiment-master\procedure","no","mono","no","24","no","black","no","yes","1050","legacy","64","15","C:/Users/Kristen/Documents/opPreviewExperiment-master/procedure/subject-15.csv","legacy","Kafkaesque Koffka","3.2.6","mult","0","l","NA","NA","a","a","5132","NA","NA","28246","5132","2","3612","legacy","small","1024","2","48000","-16","experiment","2_7_mult_FI.jpg","15","odd","legacy","221384","NA","72251","NA","NA","1999","NA","2013","67118","221384","225975","30260","64644","2000","mousetracking operator preview effect","0","0","0","no","false","no","1680"
"neutral","undefined","1","undefined","undefined","white","no","legacy","legacy","legacy","0","relative","undefined","undefined","65","NA","0","0","0","0","0","0","0","81","81","0","15","0","no","04/08/19 09:42:56","A simple template for the mouse-tracking paradigm","yes","Experiment-TF.osexp","C:\Users\Kristen\Documents\opPreviewExperiment-master\procedure","no","mono","no","24","no","black","no","yes","1050","legacy","65","15","C:/Users/Kristen/Documents/opPreviewExperiment-master/procedure/subject-15.csv","legacy","Kafkaesque Koffka","3.2.6","mult","0","l","NA","NA","a","a","5132","NA","NA","28246","5132","2","1508","legacy","small","1024","2","48000","-16","experiment","8_2_mult_FNI.jpg","15","odd","legacy","226003","NA","72251","NA","NA","1999","NA","2013","67118","226003","228485","30260","64644","2000","mousetracking operator preview effect","0","0","0","no","false","no","1680"
"negative","undefined","1","undefined","undefined","white","no","legacy","legacy","legacy","0","relative","undefined","undefined","66","NA","0","0","0","0","0","0","0","82","82","0","15","0","no","04/08/19 09:42:56","A simple template for the mouse-tracking paradigm","yes","Experiment-TF.osexp","C:\Users\Kristen\Documents\opPreviewExperiment-master\procedure","no","mono","no","24","no","black","no","yes","1050","legacy","66","15","C:/Users/Kristen/Documents/opPreviewExperiment-master/procedure/subject-15.csv","legacy","Kafkaesque Koffka","3.2.6","mult","0","l","NA","NA","a","a","5132","NA","NA","28246","5132","2","1191","legacy","large","1024","2","48000","-16","experiment","4_9_mult_FNI.jpg","15","odd","legacy","228503","NA","72251","NA","NA","1999","NA","2013","67118","228503","230826","30260","64644","2000","mousetracking operator preview effect","0","0","0","no","false","no","1680"
"negative","undefined","1","undefined","undefined","white","no","legacy","legacy","legacy","0","relative","undefined","undefined","67","NA","0","0","0","0","0","0","0","83","83","0","15","0","no","04/08/19 09:42:56","A simple template for the mouse-tracking paradigm","yes","Experiment-TF.osexp","C:\Users\Kristen\Documents\opPreviewExperiment-master\procedure","no","mono","no","24","no","black","no","yes","1050","legacy","67","15","C:/Users/Kristen/Documents/opPreviewExperiment-master/procedure/subject-15.csv","legacy","Kafkaesque Koffka","3.2.6","mult","0","l","NA","NA","a","a","5132","NA","NA","28246","5132","2","1900","legacy","large","1024","2","48000","-16","experiment","9_7_mult_FNI.jpg","15","odd","legacy","230840","NA","72251","NA","NA","1999","NA","2013","67118","230840","233887","30260","64644","2000","mousetracking operator preview effect","0","0","0","no","false","no","1680"
"neutral","undefined","1","undefined","undefined","white","no","legacy","legacy","legacy","0","relative","undefined","undefined","68","NA","0","0","0","0","0","0","0","84","84","0","15","0","no","04/08/19 09:42:56","A simple template for the mouse-tracking paradigm","yes","Experiment-TF.osexp","C:\Users\Kristen\Documents\opPreviewExperiment-master\procedure","no","mono","no","24","no","black","no","yes","1050","legacy","68","15","C:/Users/Kristen/Documents/opPreviewExperiment-master/procedure/subject-15.csv","legacy","Kafkaesque Koffka","3.2.6","mult","0","a","NA","NA","a","a","5132","NA","NA","28246","5132","2","1153","legacy","large","1024","2","48000","-16","experiment","4_9_mult_true.jpg","15","odd","legacy","233917","NA","72251","NA","NA","1999","NA","2013","67118","233917","236049","30260","64644","2000","mousetracking operator preview effect","0","0","0","no","true","no","1680"
"neutral","undefined","1","undefined","undefined","white","no","legacy","legacy","legacy","0","relative","undefined","undefined","69","NA","0","0","0","0","0","0","0","85","85","0","15","0","no","04/08/19 09:42:56","A simple template for the mouse-tracking paradigm","yes","Experiment-TF.osexp","C:\Users\Kristen\Documents\opPreviewExperiment-master\procedure","no","mono","no","24","no","black","no","yes","1050","legacy","69","15","C:/Users/Kristen/Documents/opPreviewExperiment-master/procedure/subject-15.csv","legacy","Kafkaesque Koffka","3.2.6","mult","0","a","NA","NA","a","a","5132","NA","NA","28246","5132","2","1852","legacy","large","1024","2","48000","-16","experiment","6_8_mult_true.jpg","15","odd","legacy","236070","NA","72251","NA","NA","1999","NA","2013","67118","236070","238896","30260","64644","2000","mousetracking operator preview effect","0","0","0","no","true","no","1680"
"negative","undefined","1","undefined","undefined","white","no","legacy","legacy","legacy","0","relative","undefined","undefined","70","NA","0","0","0","0","0","0","0","86","86","0","15","0","no","04/08/19 09:42:56","A simple template for the mouse-tracking paradigm","yes","Experiment-TF.osexp","C:\Users\Kristen\Documents\opPreviewExperiment-master\procedure","no","mono","no","24","no","black","no","yes","1050","legacy","70","15","C:/Users/Kristen/Documents/opPreviewExperiment-master/procedure/subject-15.csv","legacy","Kafkaesque Koffka","3.2.6","mult","0","l","NA","NA","a","a","5132","NA","NA","28246","5132","2","979","legacy","small","1024","2","48000","-16","experiment","3_6_mult_FNI.jpg","15","odd","legacy","238926","NA","72251","NA","NA","1999","NA","2013","67118","238927","241049","30260","64644","2000","mousetracking operator preview effect","0","0","0","no","false","no","1680"
"neutral","undefined","1","undefined","undefined","white","no","legacy","legacy","legacy","0","relative","undefined","undefined","71","NA","0","0","0","0","0","0","0","87","87","0","15","0","no","04/08/19 09:42:56","A simple template for the mouse-tracking paradigm","yes","Experiment-TF.osexp","C:\Users\Kristen\Documents\opPreviewExperiment-master\procedure","no","mono","no","24","no","black","no","yes","1050","legacy","71","15","C:/Users/Kristen/Documents/opPreviewExperiment-master/procedure/subject-15.csv","legacy","Kafkaesque Koffka","3.2.6","add","0","a","NA","NA","a","a","5132","NA","NA","28246","5132","2","1115","legacy","large","1024","2","48000","-16","experiment","4_9_add_true.jpg","15","odd","legacy","241078","NA","72251","NA","NA","1999","NA","2013","67118","241078","243170","30260","64644","2000","mousetracking operator preview effect","0","0","0","no","true","no","1680"
"negative","undefined","1","undefined","undefined","white","no","legacy","legacy","legacy","0","relative","undefined","undefined","72","NA","0","0","0","0","0","0","0","88","88","0","15","0","no","04/08/19 09:42:56","A simple template for the mouse-tracking paradigm","yes","Experiment-TF.osexp","C:\Users\Kristen\Documents\opPreviewExperiment-master\procedure","no","mono","no","24","no","black","no","yes","1050","legacy","72","15","C:/Users/Kristen/Documents/opPreviewExperiment-master/procedure/subject-15.csv","legacy","Kafkaesque Koffka","3.2.6","mult","0","l","NA","NA","a","a","5132","NA","NA","28246","5132","2","999","legacy","large","1024","2","48000","-16","experiment","8_4_mult_FNI.jpg","15","odd","legacy","243190","NA","72251","NA","NA","1999","NA","2013","67118","243190","245335","30260","64644","2000","mousetracking operator preview effect","0","0","0","no","false","no","1680"
"negative","undefined","1","undefined","undefined","white","no","legacy","legacy","legacy","0","relative","undefined","undefined","73","NA","0","0","0","0","0","0","0","89","89","0","15","0","no","04/08/19 09:42:56","A simple template for the mouse-tracking paradigm","yes","Experiment-TF.osexp","C:\Users\Kristen\Documents\opPreviewExperiment-master\procedure","no","mono","no","24","no","black","no","yes","1050","legacy","73","15","C:/Users/Kristen/Documents/opPreviewExperiment-master/procedure/subject-15.csv","legacy","Kafkaesque Koffka","3.2.6","mult","0","a","NA","NA","a","a","5132","NA","NA","28246","5132","2","832","legacy","large","1024","2","48000","-16","experiment","9_7_mult_true.jpg","15","odd","legacy","245364","NA","72251","NA","NA","1999","NA","2013","67118","245364","247344","30260","64644","2000","mousetracking operator preview effect","0","0","0","no","true","no","1680"
"neutral","undefined","1","undefined","undefined","white","no","legacy","legacy","legacy","0","relative","undefined","undefined","74","NA","0","0","0","0","0","0","0","90","90","0","15","0","no","04/08/19 09:42:56","A simple template for the mouse-tracking paradigm","yes","Experiment-TF.osexp","C:\Users\Kristen\Documents\opPreviewExperiment-master\procedure","no","mono","no","24","no","black","no","yes","1050","legacy","74","15","C:/Users/Kristen/Documents/opPreviewExperiment-master/procedure/subject-15.csv","legacy","Kafkaesque Koffka","3.2.6","add","0","l","NA","NA","a","a","5132","NA","NA","28246","5132","2","892","legacy","large","1024","2","48000","-16","experiment","6_8_add_FNI.jpg","15","odd","legacy","247364","NA","72251","NA","NA","1999","NA","2013","67118","247365","249232","30260","64644","2000","mousetracking operator preview effect","0","0","0","no","false","no","1680"
"negative","undefined","1","undefined","undefined","white","no","legacy","legacy","legacy","0","relative","undefined","undefined","75","NA","0","0","0","0","0","0","0","91","91","0","15","0","no","04/08/19 09:42:56","A simple template for the mouse-tracking paradigm","yes","Experiment-TF.osexp","C:\Users\Kristen\Documents\opPreviewExperiment-master\procedure","no","mono","no","24","no","black","no","yes","1050","legacy","75","15","C:/Users/Kristen/Documents/opPreviewExperiment-master/procedure/subject-15.csv","legacy","Kafkaesque Koffka","3.2.6","mult","0","a","NA","NA","a","a","5132","NA","NA","28246","5132","2","863","legacy","large","1024","2","48000","-16","experiment","6_8_mult_true.jpg","15","odd","legacy","249254","NA","72251","NA","NA","1999","NA","2013","67118","249254","251249","30260","64644","2000","mousetracking operator preview effect","0","0","0","no","true","no","1680"
"neutral","undefined","1","undefined","undefined","white","no","legacy","legacy","legacy","0","relative","undefined","undefined","76","NA","0","0","0","0","0","0","0","92","92","0","15","0","no","04/08/19 09:42:56","A simple template for the mouse-tracking paradigm","yes","Experiment-TF.osexp","C:\Users\Kristen\Documents\opPreviewExperiment-master\procedure","no","mono","no","24","no","black","no","yes","1050","legacy","76","15","C:/Users/Kristen/Documents/opPreviewExperiment-master/procedure/subject-15.csv","legacy","Kafkaesque Koffka","3.2.6","mult","0","l","NA","NA","a","a","5132","NA","NA","28246","5132","2","920","legacy","small","1024","2","48000","-16","experiment","3_6_mult_FI.jpg","15","odd","legacy","251264","NA","72251","NA","NA","1999","NA","2013","67118","251264","253160","30260","64644","2000","mousetracking operator preview effect","0","0","0","no","false","no","1680"
"neutral","undefined","1","undefined","undefined","white","no","legacy","legacy","legacy","0","relative","undefined","undefined","77","NA","0","0","0","0","0","0","0","93","93","0","15","0","no","04/08/19 09:42:56","A simple template for the mouse-tracking paradigm","yes","Experiment-TF.osexp","C:\Users\Kristen\Documents\opPreviewExperiment-master\procedure","no","mono","no","24","no","black","no","yes","1050","legacy","77","15","C:/Users/Kristen/Documents/opPreviewExperiment-master/procedure/subject-15.csv","legacy","Kafkaesque Koffka","3.2.6","mult","0","a","NA","NA","a","a","5132","NA","NA","28246","5132","2","703","legacy","large","1024","2","48000","-16","experiment","6_8_mult_true.jpg","15","odd","legacy","253187","NA","72251","NA","NA","1999","NA","2013","67118","253187","254866","30260","64644","2000","mousetracking operator preview effect","0","0","0","no","true","no","1680"
"neutral","undefined","1","undefined","undefined","white","no","legacy","legacy","legacy","0","relative","undefined","undefined","78","NA","0","0","0","0","0","0","0","94","94","0","15","0","no","04/08/19 09:42:56","A simple template for the mouse-tracking paradigm","yes","Experiment-TF.osexp","C:\Users\Kristen\Documents\opPreviewExperiment-master\procedure","no","mono","no","24","no","black","no","yes","1050","legacy","78","15","C:/Users/Kristen/Documents/opPreviewExperiment-master/procedure/subject-15.csv","legacy","Kafkaesque Koffka","3.2.6","mult","0","l","NA","NA","a","a","5132","NA","NA","28246","5132","2","865","legacy","large","1024","2","48000","-16","experiment","8_4_mult_FNI.jpg","15","odd","legacy","254888","NA","72251","NA","NA","1999","NA","2013","67118","254888","256729","30260","64644","2000","mousetracking operator preview effect","0","0","0","no","false","no","1680"
"neutral","undefined","1","undefined","undefined","white","no","legacy","legacy","legacy","0","relative","undefined","undefined","79","NA","0","0","0","0","0","0","0","95","95","0","15","0","no","04/08/19 09:42:56","A simple template for the mouse-tracking paradigm","yes","Experiment-TF.osexp","C:\Users\Kristen\Documents\opPreviewExperiment-master\procedure","no","mono","no","24","no","black","no","yes","1050","legacy","79","15","C:/Users/Kristen/Documents/opPreviewExperiment-master/procedure/subject-15.csv","legacy","Kafkaesque Koffka","3.2.6","add","0","l","NA","NA","a","a","5132","NA","NA","28246","5132","2","999","legacy","large","1024","2","48000","-16","experiment","8_4_add_FI.jpg","15","odd","legacy","256750","NA","72251","NA","NA","1999","NA","2013","67118","256750","258727","30260","64644","2000","mousetracking operator preview effect","0","0","0","no","false","no","1680"
"neutral","undefined","1","undefined","undefined","white","no","legacy","legacy","legacy","0","relative","undefined","undefined","80","NA","0","0","0","0","0","0","0","96","96","0","15","0","no","04/08/19 09:42:56","A simple template for the mouse-tracking paradigm","yes","Experiment-TF.osexp","C:\Users\Kristen\Documents\opPreviewExperiment-master\procedure","no","mono","no","24","no","black","no","yes","1050","legacy","80","15","C:/Users/Kristen/Documents/opPreviewExperiment-master/procedure/subject-15.csv","legacy","Kafkaesque Koffka","3.2.6","mult","0","l","NA","NA","a","a","5132","NA","NA","28246","5132","2","990","legacy","large","1024","2","48000","-16","experiment","4_9_mult_FI.jpg","15","odd","legacy","258750","NA","72251","NA","NA","1999","NA","2013","67118","258750","260711","30260","64644","2000","mousetracking operator preview effect","0","0","0","no","false","no","1680"
"negative","undefined","1","undefined","undefined","white","no","legacy","legacy","legacy","0","relative","undefined","undefined","81","NA","0","0","0","0","0","0","0","97","97","0","15","0","no","04/08/19 09:42:56","A simple template for the mouse-tracking paradigm","yes","Experiment-TF.osexp","C:\Users\Kristen\Documents\opPreviewExperiment-master\procedure","no","mono","no","24","no","black","no","yes","1050","legacy","81","15","C:/Users/Kristen/Documents/opPreviewExperiment-master/procedure/subject-15.csv","legacy","Kafkaesque Koffka","3.2.6","mult","0","a","NA","NA","a","a","5132","NA","NA","28246","5132","2","878","legacy","small","1024","2","48000","-16","experiment","3_6_mult_true.jpg","15","odd","legacy","260724","NA","72251","NA","NA","1999","NA","2013","67118","260724","262748","30260","64644","2000","mousetracking operator preview effect","0","0","0","no","true","no","1680"
"neutral","undefined","1","undefined","undefined","white","no","legacy","legacy","legacy","0","relative","undefined","undefined","82","NA","0","0","0","0","0","0","0","98","98","0","15","0","no","04/08/19 09:42:56","A simple template for the mouse-tracking paradigm","yes","Experiment-TF.osexp","C:\Users\Kristen\Documents\opPreviewExperiment-master\procedure","no","mono","no","24","no","black","no","yes","1050","legacy","82","15","C:/Users/Kristen/Documents/opPreviewExperiment-master/procedure/subject-15.csv","legacy","Kafkaesque Koffka","3.2.6","mult","0","l","NA","NA","a","a","5132","NA","NA","28246","5132","2","840","legacy","small","1024","2","48000","-16","experiment","2_7_mult_FNI.jpg","15","odd","legacy","262769","NA","72251","NA","NA","1999","NA","2013","67118","262769","264582","30260","64644","2000","mousetracking operator preview effect","0","0","0","no","false","no","1680"
"negative","undefined","0","undefined","undefined","white","no","legacy","legacy","legacy","0","relative","undefined","undefined","83","NA","0","0","0","0","0","0","0","99","99","0","15","0","no","04/08/19 09:42:56","A simple template for the mouse-tracking paradigm","yes","Experiment-TF.osexp","C:\Users\Kristen\Documents\opPreviewExperiment-master\procedure","no","mono","no","24","no","black","no","yes","1050","legacy","83","15","C:/Users/Kristen/Documents/opPreviewExperiment-master/procedure/subject-15.csv","legacy","Kafkaesque Koffka","3.2.6","add","0","l","NA","NA","a","a","5132","NA","NA","28246","5132","2","916","legacy","large","1024","2","48000","-16","experiment","6_8_add_true.jpg","15","odd","legacy","264607","NA","72251","NA","NA","1999","NA","2013","67118","264607","267687","30260","64644","2000","mousetracking operator preview effect","0","0","0","no","true","no","1680"
"neutral","undefined","1","undefined","undefined","white","no","legacy","legacy","legacy","0","relative","undefined","undefined","84","NA","0","0","0","0","0","0","0","100","100","0","15","0","no","04/08/19 09:42:56","A simple template for the mouse-tracking paradigm","yes","Experiment-TF.osexp","C:\Users\Kristen\Documents\opPreviewExperiment-master\procedure","no","mono","no","24","no","black","no","yes","1050","legacy","84","15","C:/Users/Kristen/Documents/opPreviewExperiment-master/procedure/subject-15.csv","legacy","Kafkaesque Koffka","3.2.6","add","0","l","NA","NA","a","a","5132","NA","NA","28246","5132","2","972","legacy","large","1024","2","48000","-16","experiment","9_7_add_FNI.jpg","15","odd","legacy","267723","NA","72251","NA","NA","1999","NA","2013","67118","267723","269672","30260","64644","2000","mousetracking operator preview effect","0","0","0","no","false","no","1680"
"negative","undefined","1","undefined","undefined","white","no","legacy","legacy","legacy","0","relative","undefined","undefined","85","NA","0","0","0","0","0","0","0","101","101","0","15","0","no","04/08/19 09:42:56","A simple template for the mouse-tracking paradigm","yes","Experiment-TF.osexp","C:\Users\Kristen\Documents\opPreviewExperiment-master\procedure","no","mono","no","24","no","black","no","yes","1050","legacy","85","15","C:/Users/Kristen/Documents/opPreviewExperiment-master/procedure/subject-15.csv","legacy","Kafkaesque Koffka","3.2.6","add","0","l","NA","NA","a","a","5132","NA","NA","28246","5132","2","959","legacy","large","1024","2","48000","-16","experiment","4_9_add_FI.jpg","15","odd","legacy","269700","NA","72251","NA","NA","1999","NA","2013","67118","269700","271794","30260","64644","2000","mousetracking operator preview effect","0","0","0","no","false","no","1680"
"neutral","undefined","1","undefined","undefined","white","no","legacy","legacy","legacy","0","relative","undefined","undefined","86","NA","0","0","0","0","0","0","0","102","102","0","15","0","no","04/08/19 09:42:56","A simple template for the mouse-tracking paradigm","yes","Experiment-TF.osexp","C:\Users\Kristen\Documents\opPreviewExperiment-master\procedure","no","mono","no","24","no","black","no","yes","1050","legacy","86","15","C:/Users/Kristen/Documents/opPreviewExperiment-master/procedure/subject-15.csv","legacy","Kafkaesque Koffka","3.2.6","mult","0","a","NA","NA","a","a","5132","NA","NA","28246","5132","2","683","legacy","large","1024","2","48000","-16","experiment","8_4_mult_true.jpg","15","odd","legacy","271823","NA","72251","NA","NA","1999","NA","2013","67118","271823","273487","30260","64644","2000","mousetracking operator preview effect","0","0","0","no","true","no","1680"
"negative","undefined","1","undefined","undefined","white","no","legacy","legacy","legacy","0","relative","undefined","undefined","87","NA","0","0","0","0","0","0","0","103","103","0","15","0","no","04/08/19 09:42:56","A simple template for the mouse-tracking paradigm","yes","Experiment-TF.osexp","C:\Users\Kristen\Documents\opPreviewExperiment-master\procedure","no","mono","no","24","no","black","no","yes","1050","legacy","87","15","C:/Users/Kristen/Documents/opPreviewExperiment-master/procedure/subject-15.csv","legacy","Kafkaesque Koffka","3.2.6","mult","0","l","NA","NA","a","a","5132","NA","NA","28246","5132","2","802","legacy","small","1024","2","48000","-16","experiment","8_2_mult_FI.jpg","15","odd","legacy","273508","NA","72251","NA","NA","1999","NA","2013","67118","273508","275458","30260","64644","2000","mousetracking operator preview effect","0","0","0","no","false","no","1680"
"negative","undefined","1","undefined","undefined","white","no","legacy","legacy","legacy","0","relative","undefined","undefined","88","NA","0","0","0","0","0","0","0","104","104","0","15","0","no","04/08/19 09:42:56","A simple template for the mouse-tracking paradigm","yes","Experiment-TF.osexp","C:\Users\Kristen\Documents\opPreviewExperiment-master\procedure","no","mono","no","24","no","black","no","yes","1050","legacy","88","15","C:/Users/Kristen/Documents/opPreviewExperiment-master/procedure/subject-15.csv","legacy","Kafkaesque Koffka","3.2.6","add","0","a","NA","NA","a","a","5132","NA","NA","28246","5132","2","760","legacy","small","1024","2","48000","-16","experiment","3_6_add_true.jpg","15","odd","legacy","275481","NA","72251","NA","NA","1999","NA","2013","67118","275481","277393","30260","64644","2000","mousetracking operator preview effect","0","0","0","no","true","no","1680"
"neutral","undefined","1","undefined","undefined","white","no","legacy","legacy","legacy","0","relative","undefined","undefined","89","NA","0","0","0","0","0","0","0","105","105","0","15","0","no","04/08/19 09:42:56","A simple template for the mouse-tracking paradigm","yes","Experiment-TF.osexp","C:\Users\Kristen\Documents\opPreviewExperiment-master\procedure","no","mono","no","24","no","black","no","yes","1050","legacy","89","15","C:/Users/Kristen/Documents/opPreviewExperiment-master/procedure/subject-15.csv","legacy","Kafkaesque Koffka","3.2.6","add","0","l","NA","NA","a","a","5132","NA","NA","28246","5132","2","1034","legacy","large","1024","2","48000","-16","experiment","4_9_add_FI.jpg","15","odd","legacy","277416","NA","72251","NA","NA","1999","NA","2013","67118","277417","279431","30260","64644","2000","mousetracking operator preview effect","0","0","0","no","false","no","1680"
"negative","undefined","1","undefined","undefined","white","no","legacy","legacy","legacy","0","relative","undefined","undefined","90","NA","0","0","0","0","0","0","0","106","106","0","15","0","no","04/08/19 09:42:56","A simple template for the mouse-tracking paradigm","yes","Experiment-TF.osexp","C:\Users\Kristen\Documents\opPreviewExperiment-master\procedure","no","mono","no","24","no","black","no","yes","1050","legacy","90","15","C:/Users/Kristen/Documents/opPreviewExperiment-master/procedure/subject-15.csv","legacy","Kafkaesque Koffka","3.2.6","mult","0","a","NA","NA","a","a","5132","NA","NA","28246","5132","2","997","legacy","large","1024","2","48000","-16","experiment","8_4_mult_true.jpg","15","odd","legacy","279459","NA","72251","NA","NA","1999","NA","2013","67118","279459","281606","30260","64644","2000","mousetracking operator preview effect","0","0","0","no","true","no","1680"
"negative","undefined","1","undefined","undefined","white","no","legacy","legacy","legacy","0","relative","undefined","undefined","91","NA","0","0","0","0","0","0","0","107","107","0","15","0","no","04/08/19 09:42:56","A simple template for the mouse-tracking paradigm","yes","Experiment-TF.osexp","C:\Users\Kristen\Documents\opPreviewExperiment-master\procedure","no","mono","no","24","no","black","no","yes","1050","legacy","91","15","C:/Users/Kristen/Documents/opPreviewExperiment-master/procedure/subject-15.csv","legacy","Kafkaesque Koffka","3.2.6","add","0","a","NA","NA","a","a","5132","NA","NA","28246","5132","2","918","legacy","small","1024","2","48000","-16","experiment","3_6_add_true.jpg","15","odd","legacy","281626","NA","72251","NA","NA","1999","NA","2013","67118","281626","283698","30260","64644","2000","mousetracking operator preview effect","0","0","0","no","true","no","1680"
"negative","undefined","1","undefined","undefined","white","no","legacy","legacy","legacy","0","relative","undefined","undefined","92","NA","0","0","0","0","0","0","0","108","108","0","15","0","no","04/08/19 09:42:56","A simple template for the mouse-tracking paradigm","yes","Experiment-TF.osexp","C:\Users\Kristen\Documents\opPreviewExperiment-master\procedure","no","mono","no","24","no","black","no","yes","1050","legacy","92","15","C:/Users/Kristen/Documents/opPreviewExperiment-master/procedure/subject-15.csv","legacy","Kafkaesque Koffka","3.2.6","add","0","l","NA","NA","a","a","5132","NA","NA","28246","5132","2","948","legacy","large","1024","2","48000","-16","experiment","6_8_add_FI.jpg","15","odd","legacy","283726","NA","72251","NA","NA","1999","NA","2013","67118","283726","285824","30260","64644","2000","mousetracking operator preview effect","0","0","0","no","false","no","1680"
