"SOAcondition","acc","accuracy","average_response_time","avg_rt","background","bidi","canvas_backend","clock_backend","color_backend","compensation","coordinates","correct","correct_instruction1","count_block1_sequence","count_block2_sequence","count_block_1","count_block_2","count_breakScreen","count_experiment","count_finish","count_instruction1","count_instruction2","count_keyboard_script","count_logger","count_practiceBlock","count_practice_sequence","count_setup_script","custom_cursor","datetime","description","disable_garbage_collection","experiment_file","experiment_path","font_bold","font_family","font_italic","font_size","font_underline","foreground","form_clicks","fullscreen","height","keyboard_backend","live_row","live_row_practiceBlock","logfile","mouse_backend","opensesame_codename","opensesame_version","operation","repeat_cycle","response","response_breakScreen","response_finish","response_instruction1","response_instruction2","response_time","response_time_breakScreen","response_time_finish","response_time_instruction1","response_time_instruction2","round_decimals","rt","sampler_backend","size","sound_buf_size","sound_channels","sound_freq","sound_sample_size","start","stimulus","subject_nr","subject_parity","synth_backend","time_block1_sequence","time_block2_sequence","time_block_1","time_block_2","time_breakScreen","time_experiment","time_finish","time_instruction1","time_instruction2","time_keyboard_script","time_logger","time_practiceBlock","time_practice_sequence","time_setup_script","title","total_correct","total_response_time","total_responses","transparent_variables","truth","uniform_coordinates","width"
"negative","undefined","1","undefined","undefined","white","no","legacy","legacy","legacy","0","relative","undefined","undefined","NA","NA","0","0","0","0","0","0","0","0","0","0","0","0","no","03/09/19 16:51:32","A simple template for the mouse-tracking paradigm","yes","Experiment-FT.osexp","C:\Users\Kristen\Documents\opPreviewExperiment-master\procedure","no","mono","no","24","no","black","no","yes","1050","legacy","0","0","C:/Users/Kristen/Documents/opPreviewExperiment-master/procedure/subject-7.csv","legacy","Kafkaesque Koffka","3.2.6","add","0","l","NA","NA","l","NA","39731","NA","NA","39731","NA","2","3048","legacy","NA","1024","2","48000","-16","experiment","1_4_add_T.jpg","7","odd","legacy","NA","NA","NA","NA","NA","1918","NA","1931","NA","41669","45869","41664","41668","1919","mousetracking operator preview effect","0","0","0","no","true","no","1680"
"negative","undefined","1","undefined","undefined","white","no","legacy","legacy","legacy","0","relative","undefined","undefined","NA","NA","0","0","0","0","0","0","0","1","1","0","1","0","no","03/09/19 16:51:32","A simple template for the mouse-tracking paradigm","yes","Experiment-FT.osexp","C:\Users\Kristen\Documents\opPreviewExperiment-master\procedure","no","mono","no","24","no","black","no","yes","1050","legacy","1","1","C:/Users/Kristen/Documents/opPreviewExperiment-master/procedure/subject-7.csv","legacy","Kafkaesque Koffka","3.2.6","mult","0","a","NA","NA","l","NA","39731","NA","NA","39731","NA","2","2694","legacy","NA","1024","2","48000","-16","experiment","1_4_mult_F.jpg","7","odd","legacy","NA","NA","NA","NA","NA","1918","NA","1931","NA","45902","49741","41664","45902","1919","mousetracking operator preview effect","0","0","0","no","false","no","1680"
"neutral","undefined","1","undefined","undefined","white","no","legacy","legacy","legacy","0","relative","undefined","undefined","NA","NA","0","0","0","0","0","0","0","2","2","0","2","0","no","03/09/19 16:51:32","A simple template for the mouse-tracking paradigm","yes","Experiment-FT.osexp","C:\Users\Kristen\Documents\opPreviewExperiment-master\procedure","no","mono","no","24","no","black","no","yes","1050","legacy","2","2","C:/Users/Kristen/Documents/opPreviewExperiment-master/procedure/subject-7.csv","legacy","Kafkaesque Koffka","3.2.6","mult","0","a","NA","NA","l","NA","39731","NA","NA","39731","NA","2","2266","legacy","NA","1024","2","48000","-16","experiment","1_4_mult_F.jpg","7","odd","legacy","NA","NA","NA","NA","NA","1918","NA","1931","NA","49761","53002","41664","49761","1919","mousetracking operator preview effect","0","0","0","no","false","no","1680"
"negative","undefined","1","undefined","undefined","white","no","legacy","legacy","legacy","0","relative","undefined","undefined","NA","NA","0","0","0","0","0","0","0","3","3","0","3","0","no","03/09/19 16:51:32","A simple template for the mouse-tracking paradigm","yes","Experiment-FT.osexp","C:\Users\Kristen\Documents\opPreviewExperiment-master\procedure","no","mono","no","24","no","black","no","yes","1050","legacy","3","3","C:/Users/Kristen/Documents/opPreviewExperiment-master/procedure/subject-7.csv","legacy","Kafkaesque Koffka","3.2.6","mult","0","l","NA","NA","l","NA","39731","NA","NA","39731","NA","2","1811","legacy","NA","1024","2","48000","-16","experiment","1_4_mult_T.jpg","7","odd","legacy","NA","NA","NA","NA","NA","1918","NA","1931","NA","53024","55987","41664","53024","1919","mousetracking operator preview effect","0","0","0","no","true","no","1680"
"neutral","undefined","1","undefined","undefined","white","no","legacy","legacy","legacy","0","relative","undefined","undefined","NA","NA","0","0","0","0","0","0","0","4","4","0","4","0","no","03/09/19 16:51:32","A simple template for the mouse-tracking paradigm","yes","Experiment-FT.osexp","C:\Users\Kristen\Documents\opPreviewExperiment-master\procedure","no","mono","no","24","no","black","no","yes","1050","legacy","4","4","C:/Users/Kristen/Documents/opPreviewExperiment-master/procedure/subject-7.csv","legacy","Kafkaesque Koffka","3.2.6","add","0","l","NA","NA","l","NA","39731","NA","NA","39731","NA","2","2274","legacy","NA","1024","2","48000","-16","experiment","0_3_add_T.jpg","7","odd","legacy","NA","NA","NA","NA","NA","1918","NA","1931","NA","56016","59269","41664","56016","1919","mousetracking operator preview effect","0","0","0","no","true","no","1680"
"neutral","undefined","1","undefined","undefined","white","no","legacy","legacy","legacy","0","relative","undefined","undefined","NA","NA","0","0","0","0","0","0","0","5","5","0","5","0","no","03/09/19 16:51:32","A simple template for the mouse-tracking paradigm","yes","Experiment-FT.osexp","C:\Users\Kristen\Documents\opPreviewExperiment-master\procedure","no","mono","no","24","no","black","no","yes","1050","legacy","5","5","C:/Users/Kristen/Documents/opPreviewExperiment-master/procedure/subject-7.csv","legacy","Kafkaesque Koffka","3.2.6","mult","0","l","NA","NA","l","NA","39731","NA","NA","39731","NA","2","2427","legacy","NA","1024","2","48000","-16","experiment","0_3_mult_T.jpg","7","odd","legacy","NA","NA","NA","NA","NA","1918","NA","1931","NA","59291","62687","41664","59291","1919","mousetracking operator preview effect","0","0","0","no","true","no","1680"
"neutral","undefined","1","undefined","undefined","white","no","legacy","legacy","legacy","0","relative","undefined","undefined","NA","NA","0","0","0","0","0","0","0","6","6","0","6","0","no","03/09/19 16:51:32","A simple template for the mouse-tracking paradigm","yes","Experiment-FT.osexp","C:\Users\Kristen\Documents\opPreviewExperiment-master\procedure","no","mono","no","24","no","black","no","yes","1050","legacy","6","6","C:/Users/Kristen/Documents/opPreviewExperiment-master/procedure/subject-7.csv","legacy","Kafkaesque Koffka","3.2.6","mult","0","a","NA","NA","l","NA","39731","NA","NA","39731","NA","2","1925","legacy","NA","1024","2","48000","-16","experiment","0_3_mult_F.jpg","7","odd","legacy","NA","NA","NA","NA","NA","1918","NA","1931","NA","62714","65617","41664","62714","1919","mousetracking operator preview effect","0","0","0","no","false","no","1680"
"negative","undefined","1","undefined","undefined","white","no","legacy","legacy","legacy","0","relative","undefined","undefined","NA","NA","0","0","0","0","0","0","0","7","7","0","7","0","no","03/09/19 16:51:32","A simple template for the mouse-tracking paradigm","yes","Experiment-FT.osexp","C:\Users\Kristen\Documents\opPreviewExperiment-master\procedure","no","mono","no","24","no","black","no","yes","1050","legacy","7","7","C:/Users/Kristen/Documents/opPreviewExperiment-master/procedure/subject-7.csv","legacy","Kafkaesque Koffka","3.2.6","add","0","a","NA","NA","l","NA","39731","NA","NA","39731","NA","2","2779","legacy","NA","1024","2","48000","-16","experiment","0_3_add_F.jpg","7","odd","legacy","NA","NA","NA","NA","NA","1918","NA","1931","NA","65638","69561","41664","65638","1919","mousetracking operator preview effect","0","0","0","no","false","no","1680"
"neutral","undefined","1","undefined","undefined","white","no","legacy","legacy","legacy","0","relative","undefined","undefined","NA","NA","0","0","0","0","0","0","0","8","8","0","8","0","no","03/09/19 16:51:32","A simple template for the mouse-tracking paradigm","yes","Experiment-FT.osexp","C:\Users\Kristen\Documents\opPreviewExperiment-master\procedure","no","mono","no","24","no","black","no","yes","1050","legacy","8","8","C:/Users/Kristen/Documents/opPreviewExperiment-master/procedure/subject-7.csv","legacy","Kafkaesque Koffka","3.2.6","mult","0","l","NA","NA","l","NA","39731","NA","NA","39731","NA","2","1653","legacy","NA","1024","2","48000","-16","experiment","1_4_mult_T.jpg","7","odd","legacy","NA","NA","NA","NA","NA","1918","NA","1931","NA","69582","72209","41664","69582","1919","mousetracking operator preview effect","0","0","0","no","true","no","1680"
"negative","undefined","1","undefined","undefined","white","no","legacy","legacy","legacy","0","relative","undefined","undefined","NA","NA","0","0","0","0","0","0","0","9","9","0","9","0","no","03/09/19 16:51:32","A simple template for the mouse-tracking paradigm","yes","Experiment-FT.osexp","C:\Users\Kristen\Documents\opPreviewExperiment-master\procedure","no","mono","no","24","no","black","no","yes","1050","legacy","9","9","C:/Users/Kristen/Documents/opPreviewExperiment-master/procedure/subject-7.csv","legacy","Kafkaesque Koffka","3.2.6","add","0","a","NA","NA","l","NA","39731","NA","NA","39731","NA","2","4261","legacy","NA","1024","2","48000","-16","experiment","1_4_add_F.jpg","7","odd","legacy","NA","NA","NA","NA","NA","1918","NA","1931","NA","72231","77619","41664","72231","1919","mousetracking operator preview effect","0","0","0","no","false","no","1680"
"negative","undefined","1","undefined","undefined","white","no","legacy","legacy","legacy","0","relative","undefined","undefined","NA","NA","0","0","0","0","0","0","0","10","10","0","10","0","no","03/09/19 16:51:32","A simple template for the mouse-tracking paradigm","yes","Experiment-FT.osexp","C:\Users\Kristen\Documents\opPreviewExperiment-master\procedure","no","mono","no","24","no","black","no","yes","1050","legacy","10","10","C:/Users/Kristen/Documents/opPreviewExperiment-master/procedure/subject-7.csv","legacy","Kafkaesque Koffka","3.2.6","mult","0","l","NA","NA","l","NA","39731","NA","NA","39731","NA","2","1868","legacy","NA","1024","2","48000","-16","experiment","0_3_mult_T.jpg","7","odd","legacy","NA","NA","NA","NA","NA","1918","NA","1931","NA","77648","80666","41664","77648","1919","mousetracking operator preview effect","0","0","0","no","true","no","1680"
"negative","undefined","1","undefined","undefined","white","no","legacy","legacy","legacy","0","relative","undefined","undefined","NA","NA","0","0","0","0","0","0","0","11","11","0","11","0","no","03/09/19 16:51:32","A simple template for the mouse-tracking paradigm","yes","Experiment-FT.osexp","C:\Users\Kristen\Documents\opPreviewExperiment-master\procedure","no","mono","no","24","no","black","no","yes","1050","legacy","11","11","C:/Users/Kristen/Documents/opPreviewExperiment-master/procedure/subject-7.csv","legacy","Kafkaesque Koffka","3.2.6","add","0","l","NA","NA","l","NA","39731","NA","NA","39731","NA","2","1914","legacy","NA","1024","2","48000","-16","experiment","0_3_add_T.jpg","7","odd","legacy","NA","NA","NA","NA","NA","1918","NA","1931","NA","80697","83760","41664","80697","1919","mousetracking operator preview effect","0","0","0","no","true","no","1680"
"neutral","undefined","1","undefined","undefined","white","no","legacy","legacy","legacy","0","relative","undefined","undefined","NA","NA","0","0","0","0","0","0","0","12","12","0","12","0","no","03/09/19 16:51:32","A simple template for the mouse-tracking paradigm","yes","Experiment-FT.osexp","C:\Users\Kristen\Documents\opPreviewExperiment-master\procedure","no","mono","no","24","no","black","no","yes","1050","legacy","12","12","C:/Users/Kristen/Documents/opPreviewExperiment-master/procedure/subject-7.csv","legacy","Kafkaesque Koffka","3.2.6","add","0","l","NA","NA","l","NA","39731","NA","NA","39731","NA","2","1555","legacy","NA","1024","2","48000","-16","experiment","1_4_add_T.jpg","7","odd","legacy","NA","NA","NA","NA","NA","1918","NA","1931","NA","83788","86318","41664","83787","1919","mousetracking operator preview effect","0","0","0","no","true","no","1680"
"neutral","undefined","1","undefined","undefined","white","no","legacy","legacy","legacy","0","relative","undefined","undefined","NA","NA","0","0","0","0","0","0","0","13","13","0","13","0","no","03/09/19 16:51:32","A simple template for the mouse-tracking paradigm","yes","Experiment-FT.osexp","C:\Users\Kristen\Documents\opPreviewExperiment-master\procedure","no","mono","no","24","no","black","no","yes","1050","legacy","13","13","C:/Users/Kristen/Documents/opPreviewExperiment-master/procedure/subject-7.csv","legacy","Kafkaesque Koffka","3.2.6","add","0","a","NA","NA","l","NA","39731","NA","NA","39731","NA","2","2130","legacy","NA","1024","2","48000","-16","experiment","0_3_add_F.jpg","7","odd","legacy","NA","NA","NA","NA","NA","1918","NA","1931","NA","86339","89441","41664","86339","1919","mousetracking operator preview effect","0","0","0","no","false","no","1680"
"negative","undefined","1","undefined","undefined","white","no","legacy","legacy","legacy","0","relative","undefined","undefined","NA","NA","0","0","0","0","0","0","0","14","14","0","14","0","no","03/09/19 16:51:32","A simple template for the mouse-tracking paradigm","yes","Experiment-FT.osexp","C:\Users\Kristen\Documents\opPreviewExperiment-master\procedure","no","mono","no","24","no","black","no","yes","1050","legacy","14","14","C:/Users/Kristen/Documents/opPreviewExperiment-master/procedure/subject-7.csv","legacy","Kafkaesque Koffka","3.2.6","mult","0","a","NA","NA","l","NA","39731","NA","NA","39731","NA","2","1835","legacy","NA","1024","2","48000","-16","experiment","0_3_mult_F.jpg","7","odd","legacy","NA","NA","NA","NA","NA","1918","NA","1931","NA","89471","92456","41664","89471","1919","mousetracking operator preview effect","0","0","0","no","false","no","1680"
"neutral","undefined","1","undefined","undefined","white","no","legacy","legacy","legacy","0","relative","undefined","undefined","NA","NA","0","0","0","0","0","0","0","15","15","0","15","0","no","03/09/19 16:51:32","A simple template for the mouse-tracking paradigm","yes","Experiment-FT.osexp","C:\Users\Kristen\Documents\opPreviewExperiment-master\procedure","no","mono","no","24","no","black","no","yes","1050","legacy","15","15","C:/Users/Kristen/Documents/opPreviewExperiment-master/procedure/subject-7.csv","legacy","Kafkaesque Koffka","3.2.6","add","0","a","NA","NA","l","NA","39731","NA","NA","39731","NA","2","2240","legacy","NA","1024","2","48000","-16","experiment","1_4_add_F.jpg","7","odd","legacy","NA","NA","NA","NA","NA","1918","NA","1931","NA","92487","95703","41664","92487","1919","mousetracking operator preview effect","0","0","0","no","false","no","1680"
"negative","undefined","1","undefined","undefined","white","no","legacy","legacy","legacy","0","relative","undefined","undefined","0","NA","0","0","0","0","0","0","0","16","16","0","15","0","no","03/09/19 16:51:32","A simple template for the mouse-tracking paradigm","yes","Experiment-FT.osexp","C:\Users\Kristen\Documents\opPreviewExperiment-master\procedure","no","mono","no","24","no","black","no","yes","1050","legacy","0","15","C:/Users/Kristen/Documents/opPreviewExperiment-master/procedure/subject-7.csv","legacy","Kafkaesque Koffka","3.2.6","add","0","a","NA","NA","l","l","20489","NA","NA","39731","20489","2","3115","legacy","small","1024","2","48000","-16","experiment","2_7_add_FI.jpg","7","odd","legacy","116224","NA","116220","NA","NA","1918","NA","1931","95731","116224","120484","41664","92487","1919","mousetracking operator preview effect","0","0","0","no","false","no","1680"
"neutral","undefined","1","undefined","undefined","white","no","legacy","legacy","legacy","0","relative","undefined","undefined","1","NA","0","0","0","0","0","0","0","17","17","0","15","0","no","03/09/19 16:51:32","A simple template for the mouse-tracking paradigm","yes","Experiment-FT.osexp","C:\Users\Kristen\Documents\opPreviewExperiment-master\procedure","no","mono","no","24","no","black","no","yes","1050","legacy","1","15","C:/Users/Kristen/Documents/opPreviewExperiment-master/procedure/subject-7.csv","legacy","Kafkaesque Koffka","3.2.6","add","0","l","NA","NA","l","l","20489","NA","NA","39731","20489","2","1615","legacy","small","1024","2","48000","-16","experiment","5_3_add_true.jpg","7","odd","legacy","120507","NA","116220","NA","NA","1918","NA","1931","95731","120507","123097","41664","92487","1919","mousetracking operator preview effect","0","0","0","no","true","no","1680"
"neutral","undefined","1","undefined","undefined","white","no","legacy","legacy","legacy","0","relative","undefined","undefined","2","NA","0","0","0","0","0","0","0","18","18","0","15","0","no","03/09/19 16:51:32","A simple template for the mouse-tracking paradigm","yes","Experiment-FT.osexp","C:\Users\Kristen\Documents\opPreviewExperiment-master\procedure","no","mono","no","24","no","black","no","yes","1050","legacy","2","15","C:/Users/Kristen/Documents/opPreviewExperiment-master/procedure/subject-7.csv","legacy","Kafkaesque Koffka","3.2.6","add","0","a","NA","NA","l","l","20489","NA","NA","39731","20489","2","1562","legacy","small","1024","2","48000","-16","experiment","5_3_add_FNI.jpg","7","odd","legacy","123113","NA","116220","NA","NA","1918","NA","1931","95731","123113","125643","41664","92487","1919","mousetracking operator preview effect","0","0","0","no","false","no","1680"
"negative","undefined","1","undefined","undefined","white","no","legacy","legacy","legacy","0","relative","undefined","undefined","3","NA","0","0","0","0","0","0","0","19","19","0","15","0","no","03/09/19 16:51:32","A simple template for the mouse-tracking paradigm","yes","Experiment-FT.osexp","C:\Users\Kristen\Documents\opPreviewExperiment-master\procedure","no","mono","no","24","no","black","no","yes","1050","legacy","3","15","C:/Users/Kristen/Documents/opPreviewExperiment-master/procedure/subject-7.csv","legacy","Kafkaesque Koffka","3.2.6","mult","0","a","NA","NA","l","l","20489","NA","NA","39731","20489","2","1878","legacy","small","1024","2","48000","-16","experiment","2_7_mult_FI.jpg","7","odd","legacy","125672","NA","116220","NA","NA","1918","NA","1931","95731","125672","128699","41664","92487","1919","mousetracking operator preview effect","0","0","0","no","false","no","1680"
"neutral","undefined","1","undefined","undefined","white","no","legacy","legacy","legacy","0","relative","undefined","undefined","4","NA","0","0","0","0","0","0","0","20","20","0","15","0","no","03/09/19 16:51:32","A simple template for the mouse-tracking paradigm","yes","Experiment-FT.osexp","C:\Users\Kristen\Documents\opPreviewExperiment-master\procedure","no","mono","no","24","no","black","no","yes","1050","legacy","4","15","C:/Users/Kristen/Documents/opPreviewExperiment-master/procedure/subject-7.csv","legacy","Kafkaesque Koffka","3.2.6","mult","0","l","NA","NA","l","l","20489","NA","NA","39731","20489","2","1690","legacy","large","1024","2","48000","-16","experiment","8_4_mult_true.jpg","7","odd","legacy","128729","NA","116220","NA","NA","1918","NA","1931","95731","128729","131404","41664","92487","1919","mousetracking operator preview effect","0","0","0","no","true","no","1680"
"negative","undefined","1","undefined","undefined","white","no","legacy","legacy","legacy","0","relative","undefined","undefined","5","NA","0","0","0","0","0","0","0","21","21","0","15","0","no","03/09/19 16:51:32","A simple template for the mouse-tracking paradigm","yes","Experiment-FT.osexp","C:\Users\Kristen\Documents\opPreviewExperiment-master\procedure","no","mono","no","24","no","black","no","yes","1050","legacy","5","15","C:/Users/Kristen/Documents/opPreviewExperiment-master/procedure/subject-7.csv","legacy","Kafkaesque Koffka","3.2.6","add","0","a","NA","NA","l","l","20489","NA","NA","39731","20489","2","6048","legacy","large","1024","2","48000","-16","experiment","8_4_add_FNI.jpg","7","odd","legacy","131426","NA","116220","NA","NA","1918","NA","1931","95731","131426","138614","41664","92487","1919","mousetracking operator preview effect","0","0","0","no","false","no","1680"
"neutral","undefined","1","undefined","undefined","white","no","legacy","legacy","legacy","0","relative","undefined","undefined","6","NA","0","0","0","0","0","0","0","22","22","0","15","0","no","03/09/19 16:51:32","A simple template for the mouse-tracking paradigm","yes","Experiment-FT.osexp","C:\Users\Kristen\Documents\opPreviewExperiment-master\procedure","no","mono","no","24","no","black","no","yes","1050","legacy","6","15","C:/Users/Kristen/Documents/opPreviewExperiment-master/procedure/subject-7.csv","legacy","Kafkaesque Koffka","3.2.6","add","0","l","NA","NA","l","l","20489","NA","NA","39731","20489","2","1712","legacy","small","1024","2","48000","-16","experiment","2_7_add_true.jpg","7","odd","legacy","138635","NA","116220","NA","NA","1918","NA","1931","95731","138635","141317","41664","92487","1919","mousetracking operator preview effect","0","0","0","no","true","no","1680"
"neutral","undefined","1","undefined","undefined","white","no","legacy","legacy","legacy","0","relative","undefined","undefined","7","NA","0","0","0","0","0","0","0","23","23","0","15","0","no","03/09/19 16:51:32","A simple template for the mouse-tracking paradigm","yes","Experiment-FT.osexp","C:\Users\Kristen\Documents\opPreviewExperiment-master\procedure","no","mono","no","24","no","black","no","yes","1050","legacy","7","15","C:/Users/Kristen/Documents/opPreviewExperiment-master/procedure/subject-7.csv","legacy","Kafkaesque Koffka","3.2.6","add","0","a","NA","NA","l","l","20489","NA","NA","39731","20489","2","1786","legacy","small","1024","2","48000","-16","experiment","2_7_add_FI.jpg","7","odd","legacy","141339","NA","116220","NA","NA","1918","NA","1931","95731","141339","144096","41664","92487","1919","mousetracking operator preview effect","0","0","0","no","false","no","1680"
"negative","undefined","0","undefined","undefined","white","no","legacy","legacy","legacy","0","relative","undefined","undefined","8","NA","0","0","0","0","0","0","0","24","24","0","15","0","no","03/09/19 16:51:32","A simple template for the mouse-tracking paradigm","yes","Experiment-FT.osexp","C:\Users\Kristen\Documents\opPreviewExperiment-master\procedure","no","mono","no","24","no","black","no","yes","1050","legacy","8","15","C:/Users/Kristen/Documents/opPreviewExperiment-master/procedure/subject-7.csv","legacy","Kafkaesque Koffka","3.2.6","add","0","l","NA","NA","l","l","20489","NA","NA","39731","20489","2","4902","legacy","large","1024","2","48000","-16","experiment","9_7_add_FI.jpg","7","odd","legacy","144124","NA","116220","NA","NA","1918","NA","1931","95731","144125","151191","41664","92487","1919","mousetracking operator preview effect","0","0","0","no","false","no","1680"
"neutral","undefined","1","undefined","undefined","white","no","legacy","legacy","legacy","0","relative","undefined","undefined","9","NA","0","0","0","0","0","0","0","25","25","0","15","0","no","03/09/19 16:51:32","A simple template for the mouse-tracking paradigm","yes","Experiment-FT.osexp","C:\Users\Kristen\Documents\opPreviewExperiment-master\procedure","no","mono","no","24","no","black","no","yes","1050","legacy","9","15","C:/Users/Kristen/Documents/opPreviewExperiment-master/procedure/subject-7.csv","legacy","Kafkaesque Koffka","3.2.6","add","0","l","NA","NA","l","l","20489","NA","NA","39731","20489","2","6550","legacy","large","1024","2","48000","-16","experiment","8_4_add_true.jpg","7","odd","legacy","151222","NA","116220","NA","NA","1918","NA","1931","95731","151223","158754","41664","92487","1919","mousetracking operator preview effect","0","0","0","no","true","no","1680"
"negative","undefined","1","undefined","undefined","white","no","legacy","legacy","legacy","0","relative","undefined","undefined","10","NA","0","0","0","0","0","0","0","26","26","0","15","0","no","03/09/19 16:51:32","A simple template for the mouse-tracking paradigm","yes","Experiment-FT.osexp","C:\Users\Kristen\Documents\opPreviewExperiment-master\procedure","no","mono","no","24","no","black","no","yes","1050","legacy","10","15","C:/Users/Kristen/Documents/opPreviewExperiment-master/procedure/subject-7.csv","legacy","Kafkaesque Koffka","3.2.6","mult","0","l","NA","NA","l","l","20489","NA","NA","39731","20489","2","2043","legacy","large","1024","2","48000","-16","experiment","9_7_mult_true.jpg","7","odd","legacy","158778","NA","116220","NA","NA","1918","NA","1931","95731","158778","161969","41664","92487","1919","mousetracking operator preview effect","0","0","0","no","true","no","1680"
"negative","undefined","1","undefined","undefined","white","no","legacy","legacy","legacy","0","relative","undefined","undefined","11","NA","0","0","0","0","0","0","0","27","27","0","15","0","no","03/09/19 16:51:32","A simple template for the mouse-tracking paradigm","yes","Experiment-FT.osexp","C:\Users\Kristen\Documents\opPreviewExperiment-master\procedure","no","mono","no","24","no","black","no","yes","1050","legacy","11","15","C:/Users/Kristen/Documents/opPreviewExperiment-master/procedure/subject-7.csv","legacy","Kafkaesque Koffka","3.2.6","add","0","l","NA","NA","l","l","20489","NA","NA","39731","20489","2","2975","legacy","large","1024","2","48000","-16","experiment","4_9_add_true.jpg","7","odd","legacy","162000","NA","116220","NA","NA","1918","NA","1931","95731","162000","166118","41664","92487","1919","mousetracking operator preview effect","0","0","0","no","true","no","1680"
"negative","undefined","1","undefined","undefined","white","no","legacy","legacy","legacy","0","relative","undefined","undefined","12","NA","0","0","0","0","0","0","0","28","28","0","15","0","no","03/09/19 16:51:32","A simple template for the mouse-tracking paradigm","yes","Experiment-FT.osexp","C:\Users\Kristen\Documents\opPreviewExperiment-master\procedure","no","mono","no","24","no","black","no","yes","1050","legacy","12","15","C:/Users/Kristen/Documents/opPreviewExperiment-master/procedure/subject-7.csv","legacy","Kafkaesque Koffka","3.2.6","add","0","a","NA","NA","l","l","20489","NA","NA","39731","20489","2","1972","legacy","small","1024","2","48000","-16","experiment","3_6_add_FNI.jpg","7","odd","legacy","166149","NA","116220","NA","NA","1918","NA","1931","95731","166149","169275","41664","92487","1919","mousetracking operator preview effect","0","0","0","no","false","no","1680"
"negative","undefined","1","undefined","undefined","white","no","legacy","legacy","legacy","0","relative","undefined","undefined","13","NA","0","0","0","0","0","0","0","29","29","0","15","0","no","03/09/19 16:51:32","A simple template for the mouse-tracking paradigm","yes","Experiment-FT.osexp","C:\Users\Kristen\Documents\opPreviewExperiment-master\procedure","no","mono","no","24","no","black","no","yes","1050","legacy","13","15","C:/Users/Kristen/Documents/opPreviewExperiment-master/procedure/subject-7.csv","legacy","Kafkaesque Koffka","3.2.6","add","0","l","NA","NA","l","l","20489","NA","NA","39731","20489","2","3670","legacy","large","1024","2","48000","-16","experiment","6_8_add_true.jpg","7","odd","legacy","169297","NA","116220","NA","NA","1918","NA","1931","95731","169297","174116","41664","92487","1919","mousetracking operator preview effect","0","0","0","no","true","no","1680"
"neutral","undefined","1","undefined","undefined","white","no","legacy","legacy","legacy","0","relative","undefined","undefined","14","NA","0","0","0","0","0","0","0","30","30","0","15","0","no","03/09/19 16:51:32","A simple template for the mouse-tracking paradigm","yes","Experiment-FT.osexp","C:\Users\Kristen\Documents\opPreviewExperiment-master\procedure","no","mono","no","24","no","black","no","yes","1050","legacy","14","15","C:/Users/Kristen/Documents/opPreviewExperiment-master/procedure/subject-7.csv","legacy","Kafkaesque Koffka","3.2.6","mult","0","l","NA","NA","l","l","20489","NA","NA","39731","20489","2","1838","legacy","small","1024","2","48000","-16","experiment","8_2_mult_true.jpg","7","odd","legacy","174143","NA","116220","NA","NA","1918","NA","1931","95731","174143","176959","41664","92487","1919","mousetracking operator preview effect","0","0","0","no","true","no","1680"
"neutral","undefined","1","undefined","undefined","white","no","legacy","legacy","legacy","0","relative","undefined","undefined","15","NA","0","0","0","0","0","0","0","31","31","0","15","0","no","03/09/19 16:51:32","A simple template for the mouse-tracking paradigm","yes","Experiment-FT.osexp","C:\Users\Kristen\Documents\opPreviewExperiment-master\procedure","no","mono","no","24","no","black","no","yes","1050","legacy","15","15","C:/Users/Kristen/Documents/opPreviewExperiment-master/procedure/subject-7.csv","legacy","Kafkaesque Koffka","3.2.6","mult","0","l","NA","NA","l","l","20489","NA","NA","39731","20489","2","1102","legacy","small","1024","2","48000","-16","experiment","2_7_mult_true.jpg","7","odd","legacy","176979","NA","116220","NA","NA","1918","NA","1931","95731","176979","179055","41664","92487","1919","mousetracking operator preview effect","0","0","0","no","true","no","1680"
"neutral","undefined","1","undefined","undefined","white","no","legacy","legacy","legacy","0","relative","undefined","undefined","16","NA","0","0","0","0","0","0","0","32","32","0","15","0","no","03/09/19 16:51:32","A simple template for the mouse-tracking paradigm","yes","Experiment-FT.osexp","C:\Users\Kristen\Documents\opPreviewExperiment-master\procedure","no","mono","no","24","no","black","no","yes","1050","legacy","16","15","C:/Users/Kristen/Documents/opPreviewExperiment-master/procedure/subject-7.csv","legacy","Kafkaesque Koffka","3.2.6","mult","0","a","NA","NA","l","l","20489","NA","NA","39731","20489","2","2909","legacy","small","1024","2","48000","-16","experiment","3_6_mult_FNI.jpg","7","odd","legacy","179079","NA","116220","NA","NA","1918","NA","1931","95731","179079","182948","41664","92487","1919","mousetracking operator preview effect","0","0","0","no","false","no","1680"
"neutral","undefined","1","undefined","undefined","white","no","legacy","legacy","legacy","0","relative","undefined","undefined","17","NA","0","0","0","0","0","0","0","33","33","0","15","0","no","03/09/19 16:51:32","A simple template for the mouse-tracking paradigm","yes","Experiment-FT.osexp","C:\Users\Kristen\Documents\opPreviewExperiment-master\procedure","no","mono","no","24","no","black","no","yes","1050","legacy","17","15","C:/Users/Kristen/Documents/opPreviewExperiment-master/procedure/subject-7.csv","legacy","Kafkaesque Koffka","3.2.6","mult","0","l","NA","NA","l","l","20489","NA","NA","39731","20489","2","2191","legacy","small","1024","2","48000","-16","experiment","5_3_mult_true.jpg","7","odd","legacy","182968","NA","116220","NA","NA","1918","NA","1931","95731","182968","186139","41664","92487","1919","mousetracking operator preview effect","0","0","0","no","true","no","1680"
"negative","undefined","1","undefined","undefined","white","no","legacy","legacy","legacy","0","relative","undefined","undefined","18","NA","0","0","0","0","0","0","0","34","34","0","15","0","no","03/09/19 16:51:32","A simple template for the mouse-tracking paradigm","yes","Experiment-FT.osexp","C:\Users\Kristen\Documents\opPreviewExperiment-master\procedure","no","mono","no","24","no","black","no","yes","1050","legacy","18","15","C:/Users/Kristen/Documents/opPreviewExperiment-master/procedure/subject-7.csv","legacy","Kafkaesque Koffka","3.2.6","mult","0","a","NA","NA","l","l","20489","NA","NA","39731","20489","2","2125","legacy","small","1024","2","48000","-16","experiment","5_3_mult_FNI.jpg","7","odd","legacy","186163","NA","116220","NA","NA","1918","NA","1931","95731","186163","189434","41664","92487","1919","mousetracking operator preview effect","0","0","0","no","false","no","1680"
"neutral","undefined","1","undefined","undefined","white","no","legacy","legacy","legacy","0","relative","undefined","undefined","19","NA","0","0","0","0","0","0","0","35","35","0","15","0","no","03/09/19 16:51:32","A simple template for the mouse-tracking paradigm","yes","Experiment-FT.osexp","C:\Users\Kristen\Documents\opPreviewExperiment-master\procedure","no","mono","no","24","no","black","no","yes","1050","legacy","19","15","C:/Users/Kristen/Documents/opPreviewExperiment-master/procedure/subject-7.csv","legacy","Kafkaesque Koffka","3.2.6","mult","0","a","NA","NA","l","l","20489","NA","NA","39731","20489","2","2862","legacy","large","1024","2","48000","-16","experiment","9_7_mult_FI.jpg","7","odd","legacy","189449","NA","116220","NA","NA","1918","NA","1931","95731","189449","193260","41664","92487","1919","mousetracking operator preview effect","0","0","0","no","false","no","1680"
"neutral","undefined","1","undefined","undefined","white","no","legacy","legacy","legacy","0","relative","undefined","undefined","20","NA","0","0","0","0","0","0","0","36","36","0","15","0","no","03/09/19 16:51:32","A simple template for the mouse-tracking paradigm","yes","Experiment-FT.osexp","C:\Users\Kristen\Documents\opPreviewExperiment-master\procedure","no","mono","no","24","no","black","no","yes","1050","legacy","20","15","C:/Users/Kristen/Documents/opPreviewExperiment-master/procedure/subject-7.csv","legacy","Kafkaesque Koffka","3.2.6","add","0","a","NA","NA","l","l","20489","NA","NA","39731","20489","2","3565","legacy","large","1024","2","48000","-16","experiment","4_9_add_FNI.jpg","7","odd","legacy","193297","NA","116220","NA","NA","1918","NA","1931","95731","193297","197839","41664","92487","1919","mousetracking operator preview effect","0","0","0","no","false","no","1680"
"negative","undefined","1","undefined","undefined","white","no","legacy","legacy","legacy","0","relative","undefined","undefined","21","NA","0","0","0","0","0","0","0","37","37","0","15","0","no","03/09/19 16:51:32","A simple template for the mouse-tracking paradigm","yes","Experiment-FT.osexp","C:\Users\Kristen\Documents\opPreviewExperiment-master\procedure","no","mono","no","24","no","black","no","yes","1050","legacy","21","15","C:/Users/Kristen/Documents/opPreviewExperiment-master/procedure/subject-7.csv","legacy","Kafkaesque Koffka","3.2.6","add","0","l","NA","NA","l","l","20489","NA","NA","39731","20489","2","1407","legacy","large","1024","2","48000","-16","experiment","8_4_add_true.jpg","7","odd","legacy","197871","NA","116220","NA","NA","1918","NA","1931","95731","197871","200436","41664","92487","1919","mousetracking operator preview effect","0","0","0","no","true","no","1680"
"neutral","undefined","1","undefined","undefined","white","no","legacy","legacy","legacy","0","relative","undefined","undefined","22","NA","0","0","0","0","0","0","0","38","38","0","15","0","no","03/09/19 16:51:32","A simple template for the mouse-tracking paradigm","yes","Experiment-FT.osexp","C:\Users\Kristen\Documents\opPreviewExperiment-master\procedure","no","mono","no","24","no","black","no","yes","1050","legacy","22","15","C:/Users/Kristen/Documents/opPreviewExperiment-master/procedure/subject-7.csv","legacy","Kafkaesque Koffka","3.2.6","mult","0","a","NA","NA","l","l","20489","NA","NA","39731","20489","2","2520","legacy","large","1024","2","48000","-16","experiment","6_8_mult_FI.jpg","7","odd","legacy","200458","NA","116220","NA","NA","1918","NA","1931","95731","200458","203955","41664","92487","1919","mousetracking operator preview effect","0","0","0","no","false","no","1680"
"negative","undefined","1","undefined","undefined","white","no","legacy","legacy","legacy","0","relative","undefined","undefined","23","NA","0","0","0","0","0","0","0","39","39","0","15","0","no","03/09/19 16:51:32","A simple template for the mouse-tracking paradigm","yes","Experiment-FT.osexp","C:\Users\Kristen\Documents\opPreviewExperiment-master\procedure","no","mono","no","24","no","black","no","yes","1050","legacy","23","15","C:/Users/Kristen/Documents/opPreviewExperiment-master/procedure/subject-7.csv","legacy","Kafkaesque Koffka","3.2.6","mult","0","a","NA","NA","l","l","20489","NA","NA","39731","20489","2","6779","legacy","large","1024","2","48000","-16","experiment","6_8_mult_FNI.jpg","7","odd","legacy","203981","NA","116220","NA","NA","1918","NA","1931","95731","203981","211910","41664","92487","1919","mousetracking operator preview effect","0","0","0","no","false","no","1680"
"negative","undefined","1","undefined","undefined","white","no","legacy","legacy","legacy","0","relative","undefined","undefined","24","NA","0","0","0","0","0","0","0","40","40","0","15","0","no","03/09/19 16:51:32","A simple template for the mouse-tracking paradigm","yes","Experiment-FT.osexp","C:\Users\Kristen\Documents\opPreviewExperiment-master\procedure","no","mono","no","24","no","black","no","yes","1050","legacy","24","15","C:/Users/Kristen/Documents/opPreviewExperiment-master/procedure/subject-7.csv","legacy","Kafkaesque Koffka","3.2.6","add","0","l","NA","NA","l","l","20489","NA","NA","39731","20489","2","1247","legacy","small","1024","2","48000","-16","experiment","5_3_add_true.jpg","7","odd","legacy","211939","NA","116220","NA","NA","1918","NA","1931","95731","211939","214326","41664","92487","1919","mousetracking operator preview effect","0","0","0","no","true","no","1680"
"negative","undefined","1","undefined","undefined","white","no","legacy","legacy","legacy","0","relative","undefined","undefined","25","NA","0","0","0","0","0","0","0","41","41","0","15","0","no","03/09/19 16:51:32","A simple template for the mouse-tracking paradigm","yes","Experiment-FT.osexp","C:\Users\Kristen\Documents\opPreviewExperiment-master\procedure","no","mono","no","24","no","black","no","yes","1050","legacy","25","15","C:/Users/Kristen/Documents/opPreviewExperiment-master/procedure/subject-7.csv","legacy","Kafkaesque Koffka","3.2.6","add","0","l","NA","NA","l","l","20489","NA","NA","39731","20489","2","1384","legacy","small","1024","2","48000","-16","experiment","8_2_add_true.jpg","7","odd","legacy","214356","NA","116220","NA","NA","1918","NA","1931","95731","214357","216893","41664","92487","1919","mousetracking operator preview effect","0","0","0","no","true","no","1680"
"negative","undefined","0","undefined","undefined","white","no","legacy","legacy","legacy","0","relative","undefined","undefined","26","NA","0","0","0","0","0","0","0","42","42","0","15","0","no","03/09/19 16:51:32","A simple template for the mouse-tracking paradigm","yes","Experiment-FT.osexp","C:\Users\Kristen\Documents\opPreviewExperiment-master\procedure","no","mono","no","24","no","black","no","yes","1050","legacy","26","15","C:/Users/Kristen/Documents/opPreviewExperiment-master/procedure/subject-7.csv","legacy","Kafkaesque Koffka","3.2.6","mult","0","l","NA","NA","l","l","20489","NA","NA","39731","20489","2","4373","legacy","large","1024","2","48000","-16","experiment","4_9_mult_FNI.jpg","7","odd","legacy","216915","NA","116220","NA","NA","1918","NA","1931","95731","216915","223430","41664","92487","1919","mousetracking operator preview effect","0","0","0","no","false","no","1680"
"neutral","undefined","1","undefined","undefined","white","no","legacy","legacy","legacy","0","relative","undefined","undefined","27","NA","0","0","0","0","0","0","0","43","43","0","15","0","no","03/09/19 16:51:32","A simple template for the mouse-tracking paradigm","yes","Experiment-FT.osexp","C:\Users\Kristen\Documents\opPreviewExperiment-master\procedure","no","mono","no","24","no","black","no","yes","1050","legacy","27","15","C:/Users/Kristen/Documents/opPreviewExperiment-master/procedure/subject-7.csv","legacy","Kafkaesque Koffka","3.2.6","add","0","l","NA","NA","l","l","20489","NA","NA","39731","20489","2","1615","legacy","small","1024","2","48000","-16","experiment","3_6_add_true.jpg","7","odd","legacy","223467","NA","116220","NA","NA","1918","NA","1931","95731","223469","226062","41664","92487","1919","mousetracking operator preview effect","0","0","0","no","true","no","1680"
"neutral","undefined","1","undefined","undefined","white","no","legacy","legacy","legacy","0","relative","undefined","undefined","28","NA","0","0","0","0","0","0","0","44","44","0","15","0","no","03/09/19 16:51:32","A simple template for the mouse-tracking paradigm","yes","Experiment-FT.osexp","C:\Users\Kristen\Documents\opPreviewExperiment-master\procedure","no","mono","no","24","no","black","no","yes","1050","legacy","28","15","C:/Users/Kristen/Documents/opPreviewExperiment-master/procedure/subject-7.csv","legacy","Kafkaesque Koffka","3.2.6","add","0","l","NA","NA","l","l","20489","NA","NA","39731","20489","2","1409","legacy","small","1024","2","48000","-16","experiment","8_2_add_true.jpg","7","odd","legacy","226084","NA","116220","NA","NA","1918","NA","1931","95731","226084","228475","41664","92487","1919","mousetracking operator preview effect","0","0","0","no","true","no","1680"
"neutral","undefined","1","undefined","undefined","white","no","legacy","legacy","legacy","0","relative","undefined","undefined","29","NA","0","0","0","0","0","0","0","45","45","0","15","0","no","03/09/19 16:51:32","A simple template for the mouse-tracking paradigm","yes","Experiment-FT.osexp","C:\Users\Kristen\Documents\opPreviewExperiment-master\procedure","no","mono","no","24","no","black","no","yes","1050","legacy","29","15","C:/Users/Kristen/Documents/opPreviewExperiment-master/procedure/subject-7.csv","legacy","Kafkaesque Koffka","3.2.6","mult","0","a","NA","NA","l","l","20489","NA","NA","39731","20489","2","2166","legacy","small","1024","2","48000","-16","experiment","3_6_mult_FI.jpg","7","odd","legacy","228501","NA","116220","NA","NA","1918","NA","1931","95731","228501","231642","41664","92487","1919","mousetracking operator preview effect","0","0","0","no","false","no","1680"
"neutral","undefined","1","undefined","undefined","white","no","legacy","legacy","legacy","0","relative","undefined","undefined","30","NA","0","0","0","0","0","0","0","46","46","0","15","0","no","03/09/19 16:51:32","A simple template for the mouse-tracking paradigm","yes","Experiment-FT.osexp","C:\Users\Kristen\Documents\opPreviewExperiment-master\procedure","no","mono","no","24","no","black","no","yes","1050","legacy","30","15","C:/Users/Kristen/Documents/opPreviewExperiment-master/procedure/subject-7.csv","legacy","Kafkaesque Koffka","3.2.6","mult","0","a","NA","NA","l","l","20489","NA","NA","39731","20489","2","1723","legacy","small","1024","2","48000","-16","experiment","8_2_mult_FI.jpg","7","odd","legacy","231663","NA","116220","NA","NA","1918","NA","1931","95731","231663","234357","41664","92487","1919","mousetracking operator preview effect","0","0","0","no","false","no","1680"
"neutral","undefined","1","undefined","undefined","white","no","legacy","legacy","legacy","0","relative","undefined","undefined","31","NA","0","0","0","0","0","0","0","47","47","0","15","0","no","03/09/19 16:51:32","A simple template for the mouse-tracking paradigm","yes","Experiment-FT.osexp","C:\Users\Kristen\Documents\opPreviewExperiment-master\procedure","no","mono","no","24","no","black","no","yes","1050","legacy","31","15","C:/Users/Kristen/Documents/opPreviewExperiment-master/procedure/subject-7.csv","legacy","Kafkaesque Koffka","3.2.6","mult","0","a","NA","NA","l","l","20489","NA","NA","39731","20489","2","2140","legacy","small","1024","2","48000","-16","experiment","8_2_mult_FNI.jpg","7","odd","legacy","234386","NA","116220","NA","NA","1918","NA","1931","95731","234386","237508","41664","92487","1919","mousetracking operator preview effect","0","0","0","no","false","no","1680"
"neutral","undefined","1","undefined","undefined","white","no","legacy","legacy","legacy","0","relative","undefined","undefined","32","NA","0","0","0","0","0","0","0","48","48","0","15","0","no","03/09/19 16:51:32","A simple template for the mouse-tracking paradigm","yes","Experiment-FT.osexp","C:\Users\Kristen\Documents\opPreviewExperiment-master\procedure","no","mono","no","24","no","black","no","yes","1050","legacy","32","15","C:/Users/Kristen/Documents/opPreviewExperiment-master/procedure/subject-7.csv","legacy","Kafkaesque Koffka","3.2.6","mult","0","l","NA","NA","l","l","20489","NA","NA","39731","20489","2","2656","legacy","small","1024","2","48000","-16","experiment","3_6_mult_true.jpg","7","odd","legacy","237528","NA","116220","NA","NA","1918","NA","1931","95731","237528","241153","41664","92487","1919","mousetracking operator preview effect","0","0","0","no","true","no","1680"
"negative","undefined","1","undefined","undefined","white","no","legacy","legacy","legacy","0","relative","undefined","undefined","33","NA","0","0","0","0","0","0","0","49","49","0","15","0","no","03/09/19 16:51:32","A simple template for the mouse-tracking paradigm","yes","Experiment-FT.osexp","C:\Users\Kristen\Documents\opPreviewExperiment-master\procedure","no","mono","no","24","no","black","no","yes","1050","legacy","33","15","C:/Users/Kristen/Documents/opPreviewExperiment-master/procedure/subject-7.csv","legacy","Kafkaesque Koffka","3.2.6","add","0","l","NA","NA","l","l","20489","NA","NA","39731","20489","2","4345","legacy","large","1024","2","48000","-16","experiment","9_7_add_true.jpg","7","odd","legacy","241183","NA","116220","NA","NA","1918","NA","1931","95731","241183","246672","41664","92487","1919","mousetracking operator preview effect","0","0","0","no","true","no","1680"
"neutral","undefined","1","undefined","undefined","white","no","legacy","legacy","legacy","0","relative","undefined","undefined","34","NA","0","0","0","0","0","0","0","50","50","0","15","0","no","03/09/19 16:51:32","A simple template for the mouse-tracking paradigm","yes","Experiment-FT.osexp","C:\Users\Kristen\Documents\opPreviewExperiment-master\procedure","no","mono","no","24","no","black","no","yes","1050","legacy","34","15","C:/Users/Kristen/Documents/opPreviewExperiment-master/procedure/subject-7.csv","legacy","Kafkaesque Koffka","3.2.6","add","0","a","NA","NA","l","l","20489","NA","NA","39731","20489","2","2902","legacy","small","1024","2","48000","-16","experiment","8_2_add_FNI.jpg","7","odd","legacy","246686","NA","116220","NA","NA","1918","NA","1931","95731","246686","250565","41664","92487","1919","mousetracking operator preview effect","0","0","0","no","false","no","1680"
"negative","undefined","1","undefined","undefined","white","no","legacy","legacy","legacy","0","relative","undefined","undefined","35","NA","0","0","0","0","0","0","0","51","51","0","15","0","no","03/09/19 16:51:32","A simple template for the mouse-tracking paradigm","yes","Experiment-FT.osexp","C:\Users\Kristen\Documents\opPreviewExperiment-master\procedure","no","mono","no","24","no","black","no","yes","1050","legacy","35","15","C:/Users/Kristen/Documents/opPreviewExperiment-master/procedure/subject-7.csv","legacy","Kafkaesque Koffka","3.2.6","add","0","l","NA","NA","l","l","20489","NA","NA","39731","20489","2","1309","legacy","small","1024","2","48000","-16","experiment","5_3_add_true.jpg","7","odd","legacy","250585","NA","116220","NA","NA","1918","NA","1931","95731","250585","253039","41664","92487","1919","mousetracking operator preview effect","0","0","0","no","true","no","1680"
"negative","undefined","1","undefined","undefined","white","no","legacy","legacy","legacy","0","relative","undefined","undefined","36","NA","0","0","0","0","0","0","0","52","52","0","15","0","no","03/09/19 16:51:32","A simple template for the mouse-tracking paradigm","yes","Experiment-FT.osexp","C:\Users\Kristen\Documents\opPreviewExperiment-master\procedure","no","mono","no","24","no","black","no","yes","1050","legacy","36","15","C:/Users/Kristen/Documents/opPreviewExperiment-master/procedure/subject-7.csv","legacy","Kafkaesque Koffka","3.2.6","mult","0","l","NA","NA","l","l","20489","NA","NA","39731","20489","2","2301","legacy","large","1024","2","48000","-16","experiment","6_8_mult_true.jpg","7","odd","legacy","253059","NA","116220","NA","NA","1918","NA","1931","95731","253059","256503","41664","92487","1919","mousetracking operator preview effect","0","0","0","no","true","no","1680"
"negative","undefined","1","undefined","undefined","white","no","legacy","legacy","legacy","0","relative","undefined","undefined","37","NA","0","0","0","0","0","0","0","53","53","0","15","0","no","03/09/19 16:51:32","A simple template for the mouse-tracking paradigm","yes","Experiment-FT.osexp","C:\Users\Kristen\Documents\opPreviewExperiment-master\procedure","no","mono","no","24","no","black","no","yes","1050","legacy","37","15","C:/Users/Kristen/Documents/opPreviewExperiment-master/procedure/subject-7.csv","legacy","Kafkaesque Koffka","3.2.6","mult","0","l","NA","NA","l","l","20489","NA","NA","39731","20489","2","1890","legacy","small","1024","2","48000","-16","experiment","3_6_mult_true.jpg","7","odd","legacy","256526","NA","116220","NA","NA","1918","NA","1931","95731","256526","259540","41664","92487","1919","mousetracking operator preview effect","0","0","0","no","true","no","1680"
"neutral","undefined","1","undefined","undefined","white","no","legacy","legacy","legacy","0","relative","undefined","undefined","38","NA","0","0","0","0","0","0","0","54","54","0","15","0","no","03/09/19 16:51:32","A simple template for the mouse-tracking paradigm","yes","Experiment-FT.osexp","C:\Users\Kristen\Documents\opPreviewExperiment-master\procedure","no","mono","no","24","no","black","no","yes","1050","legacy","38","15","C:/Users/Kristen/Documents/opPreviewExperiment-master/procedure/subject-7.csv","legacy","Kafkaesque Koffka","3.2.6","mult","0","l","NA","NA","l","l","20489","NA","NA","39731","20489","2","4126","legacy","large","1024","2","48000","-16","experiment","4_9_mult_true.jpg","7","odd","legacy","259570","NA","116220","NA","NA","1918","NA","1931","95731","259570","264675","41664","92487","1919","mousetracking operator preview effect","0","0","0","no","true","no","1680"
"neutral","undefined","1","undefined","undefined","white","no","legacy","legacy","legacy","0","relative","undefined","undefined","39","NA","0","0","0","0","0","0","0","55","55","0","15","0","no","03/09/19 16:51:32","A simple template for the mouse-tracking paradigm","yes","Experiment-FT.osexp","C:\Users\Kristen\Documents\opPreviewExperiment-master\procedure","no","mono","no","24","no","black","no","yes","1050","legacy","39","15","C:/Users/Kristen/Documents/opPreviewExperiment-master/procedure/subject-7.csv","legacy","Kafkaesque Koffka","3.2.6","add","0","a","NA","NA","l","l","20489","NA","NA","39731","20489","2","3382","legacy","large","1024","2","48000","-16","experiment","9_7_add_FNI.jpg","7","odd","legacy","264688","NA","116220","NA","NA","1918","NA","1931","95731","264688","269040","41664","92487","1919","mousetracking operator preview effect","0","0","0","no","false","no","1680"
"neutral","undefined","1","undefined","undefined","white","no","legacy","legacy","legacy","0","relative","undefined","undefined","40","NA","0","0","0","0","0","0","0","56","56","0","15","0","no","03/09/19 16:51:32","A simple template for the mouse-tracking paradigm","yes","Experiment-FT.osexp","C:\Users\Kristen\Documents\opPreviewExperiment-master\procedure","no","mono","no","24","no","black","no","yes","1050","legacy","40","15","C:/Users/Kristen/Documents/opPreviewExperiment-master/procedure/subject-7.csv","legacy","Kafkaesque Koffka","3.2.6","add","0","a","NA","NA","l","l","20489","NA","NA","39731","20489","2","2482","legacy","small","1024","2","48000","-16","experiment","3_6_add_FI.jpg","7","odd","legacy","269063","NA","116220","NA","NA","1918","NA","1931","95731","269064","272521","41664","92487","1919","mousetracking operator preview effect","0","0","0","no","false","no","1680"
"negative","undefined","1","undefined","undefined","white","no","legacy","legacy","legacy","0","relative","undefined","undefined","41","NA","0","0","0","0","0","0","0","57","57","0","15","0","no","03/09/19 16:51:32","A simple template for the mouse-tracking paradigm","yes","Experiment-FT.osexp","C:\Users\Kristen\Documents\opPreviewExperiment-master\procedure","no","mono","no","24","no","black","no","yes","1050","legacy","41","15","C:/Users/Kristen/Documents/opPreviewExperiment-master/procedure/subject-7.csv","legacy","Kafkaesque Koffka","3.2.6","add","0","a","NA","NA","l","l","20489","NA","NA","39731","20489","2","2421","legacy","small","1024","2","48000","-16","experiment","8_2_add_FNI.jpg","7","odd","legacy","272543","NA","116220","NA","NA","1918","NA","1931","95731","272543","276112","41664","92487","1919","mousetracking operator preview effect","0","0","0","no","false","no","1680"
"neutral","undefined","1","undefined","undefined","white","no","legacy","legacy","legacy","0","relative","undefined","undefined","42","NA","0","0","0","0","0","0","0","58","58","0","15","0","no","03/09/19 16:51:32","A simple template for the mouse-tracking paradigm","yes","Experiment-FT.osexp","C:\Users\Kristen\Documents\opPreviewExperiment-master\procedure","no","mono","no","24","no","black","no","yes","1050","legacy","42","15","C:/Users/Kristen/Documents/opPreviewExperiment-master/procedure/subject-7.csv","legacy","Kafkaesque Koffka","3.2.6","add","0","l","NA","NA","l","l","20489","NA","NA","39731","20489","2","3170","legacy","large","1024","2","48000","-16","experiment","4_9_add_true.jpg","7","odd","legacy","276133","NA","116220","NA","NA","1918","NA","1931","95731","276133","280280","41664","92487","1919","mousetracking operator preview effect","0","0","0","no","true","no","1680"
"negative","undefined","1","undefined","undefined","white","no","legacy","legacy","legacy","0","relative","undefined","undefined","43","NA","0","0","0","0","0","0","0","59","59","0","15","0","no","03/09/19 16:51:32","A simple template for the mouse-tracking paradigm","yes","Experiment-FT.osexp","C:\Users\Kristen\Documents\opPreviewExperiment-master\procedure","no","mono","no","24","no","black","no","yes","1050","legacy","43","15","C:/Users/Kristen/Documents/opPreviewExperiment-master/procedure/subject-7.csv","legacy","Kafkaesque Koffka","3.2.6","mult","0","l","NA","NA","l","l","20489","NA","NA","39731","20489","2","1415","legacy","small","1024","2","48000","-16","experiment","2_7_mult_true.jpg","7","odd","legacy","280301","NA","116220","NA","NA","1918","NA","1931","95731","280301","282861","41664","92487","1919","mousetracking operator preview effect","0","0","0","no","true","no","1680"
"neutral","undefined","1","undefined","undefined","white","no","legacy","legacy","legacy","0","relative","undefined","undefined","44","NA","0","0","0","0","0","0","0","60","60","0","15","0","no","03/09/19 16:51:32","A simple template for the mouse-tracking paradigm","yes","Experiment-FT.osexp","C:\Users\Kristen\Documents\opPreviewExperiment-master\procedure","no","mono","no","24","no","black","no","yes","1050","legacy","44","15","C:/Users/Kristen/Documents/opPreviewExperiment-master/procedure/subject-7.csv","legacy","Kafkaesque Koffka","3.2.6","mult","0","l","NA","NA","l","l","20489","NA","NA","39731","20489","2","1052","legacy","small","1024","2","48000","-16","experiment","3_6_mult_true.jpg","7","odd","legacy","282891","NA","116220","NA","NA","1918","NA","1931","95731","282891","284931","41664","92487","1919","mousetracking operator preview effect","0","0","0","no","true","no","1680"
"neutral","undefined","1","undefined","undefined","white","no","legacy","legacy","legacy","0","relative","undefined","undefined","45","NA","0","0","0","0","0","0","0","61","61","0","15","0","no","03/09/19 16:51:32","A simple template for the mouse-tracking paradigm","yes","Experiment-FT.osexp","C:\Users\Kristen\Documents\opPreviewExperiment-master\procedure","no","mono","no","24","no","black","no","yes","1050","legacy","45","15","C:/Users/Kristen/Documents/opPreviewExperiment-master/procedure/subject-7.csv","legacy","Kafkaesque Koffka","3.2.6","add","0","l","NA","NA","l","l","20489","NA","NA","39731","20489","2","2438","legacy","large","1024","2","48000","-16","experiment","9_7_add_true.jpg","7","odd","legacy","284952","NA","116220","NA","NA","1918","NA","1931","95731","284952","288370","41664","92487","1919","mousetracking operator preview effect","0","0","0","no","true","no","1680"
"neutral","undefined","1","undefined","undefined","white","no","legacy","legacy","legacy","0","relative","undefined","undefined","46","NA","0","0","0","0","0","0","0","62","62","0","15","0","no","03/09/19 16:51:32","A simple template for the mouse-tracking paradigm","yes","Experiment-FT.osexp","C:\Users\Kristen\Documents\opPreviewExperiment-master\procedure","no","mono","no","24","no","black","no","yes","1050","legacy","46","15","C:/Users/Kristen/Documents/opPreviewExperiment-master/procedure/subject-7.csv","legacy","Kafkaesque Koffka","3.2.6","add","0","l","NA","NA","l","l","20489","NA","NA","39731","20489","2","1039","legacy","small","1024","2","48000","-16","experiment","5_3_add_true.jpg","7","odd","legacy","288390","NA","116220","NA","NA","1918","NA","1931","95731","288390","290390","41664","92487","1919","mousetracking operator preview effect","0","0","0","no","true","no","1680"
"negative","undefined","1","undefined","undefined","white","no","legacy","legacy","legacy","0","relative","undefined","undefined","47","NA","0","0","0","0","0","0","0","63","63","0","15","0","no","03/09/19 16:51:32","A simple template for the mouse-tracking paradigm","yes","Experiment-FT.osexp","C:\Users\Kristen\Documents\opPreviewExperiment-master\procedure","no","mono","no","24","no","black","no","yes","1050","legacy","47","15","C:/Users/Kristen/Documents/opPreviewExperiment-master/procedure/subject-7.csv","legacy","Kafkaesque Koffka","3.2.6","mult","0","l","NA","NA","l","l","20489","NA","NA","39731","20489","2","1178","legacy","large","1024","2","48000","-16","experiment","6_8_mult_true.jpg","7","odd","legacy","290411","NA","116220","NA","NA","1918","NA","1931","95731","290411","292729","41664","92487","1919","mousetracking operator preview effect","0","0","0","no","true","no","1680"
"negative","undefined","1","undefined","undefined","white","no","legacy","legacy","legacy","0","relative","undefined","undefined","48","NA","0","0","0","0","0","0","0","64","64","0","15","0","no","03/09/19 16:51:32","A simple template for the mouse-tracking paradigm","yes","Experiment-FT.osexp","C:\Users\Kristen\Documents\opPreviewExperiment-master\procedure","no","mono","no","24","no","black","no","yes","1050","legacy","48","15","C:/Users/Kristen/Documents/opPreviewExperiment-master/procedure/subject-7.csv","legacy","Kafkaesque Koffka","3.2.6","add","0","a","NA","NA","l","l","20489","NA","NA","39731","20489","2","1788","legacy","small","1024","2","48000","-16","experiment","3_6_add_FI.jpg","7","odd","legacy","292750","NA","116220","NA","NA","1918","NA","1931","95731","292750","295684","41664","92487","1919","mousetracking operator preview effect","0","0","0","no","false","no","1680"
"neutral","undefined","1","undefined","undefined","white","no","legacy","legacy","legacy","0","relative","undefined","undefined","49","NA","0","0","0","0","0","0","0","65","65","0","15","0","no","03/09/19 16:51:32","A simple template for the mouse-tracking paradigm","yes","Experiment-FT.osexp","C:\Users\Kristen\Documents\opPreviewExperiment-master\procedure","no","mono","no","24","no","black","no","yes","1050","legacy","49","15","C:/Users/Kristen/Documents/opPreviewExperiment-master/procedure/subject-7.csv","legacy","Kafkaesque Koffka","3.2.6","add","0","a","NA","NA","l","l","20489","NA","NA","39731","20489","2","1993","legacy","large","1024","2","48000","-16","experiment","8_4_add_FI.jpg","7","odd","legacy","295714","NA","116220","NA","NA","1918","NA","1931","95731","295714","298692","41664","92487","1919","mousetracking operator preview effect","0","0","0","no","false","no","1680"
"neutral","undefined","1","undefined","undefined","white","no","legacy","legacy","legacy","0","relative","undefined","undefined","50","NA","0","0","0","0","0","0","0","66","66","0","15","0","no","03/09/19 16:51:32","A simple template for the mouse-tracking paradigm","yes","Experiment-FT.osexp","C:\Users\Kristen\Documents\opPreviewExperiment-master\procedure","no","mono","no","24","no","black","no","yes","1050","legacy","50","15","C:/Users/Kristen/Documents/opPreviewExperiment-master/procedure/subject-7.csv","legacy","Kafkaesque Koffka","3.2.6","add","0","a","NA","NA","l","l","20489","NA","NA","39731","20489","2","2297","legacy","large","1024","2","48000","-16","experiment","6_8_add_FI.jpg","7","odd","legacy","298721","NA","116220","NA","NA","1918","NA","1931","95731","298722","301995","41664","92487","1919","mousetracking operator preview effect","0","0","0","no","false","no","1680"
"negative","undefined","1","undefined","undefined","white","no","legacy","legacy","legacy","0","relative","undefined","undefined","51","NA","0","0","0","0","0","0","0","67","67","0","15","0","no","03/09/19 16:51:32","A simple template for the mouse-tracking paradigm","yes","Experiment-FT.osexp","C:\Users\Kristen\Documents\opPreviewExperiment-master\procedure","no","mono","no","24","no","black","no","yes","1050","legacy","51","15","C:/Users/Kristen/Documents/opPreviewExperiment-master/procedure/subject-7.csv","legacy","Kafkaesque Koffka","3.2.6","add","0","l","NA","NA","l","l","20489","NA","NA","39731","20489","2","1472","legacy","small","1024","2","48000","-16","experiment","2_7_add_true.jpg","7","odd","legacy","302029","NA","116220","NA","NA","1918","NA","1931","95731","302029","304656","41664","92487","1919","mousetracking operator preview effect","0","0","0","no","true","no","1680"
"negative","undefined","1","undefined","undefined","white","no","legacy","legacy","legacy","0","relative","undefined","undefined","52","NA","0","0","0","0","0","0","0","68","68","0","15","0","no","03/09/19 16:51:32","A simple template for the mouse-tracking paradigm","yes","Experiment-FT.osexp","C:\Users\Kristen\Documents\opPreviewExperiment-master\procedure","no","mono","no","24","no","black","no","yes","1050","legacy","52","15","C:/Users/Kristen/Documents/opPreviewExperiment-master/procedure/subject-7.csv","legacy","Kafkaesque Koffka","3.2.6","add","0","a","NA","NA","l","l","20489","NA","NA","39731","20489","2","1579","legacy","small","1024","2","48000","-16","experiment","5_3_add_FI.jpg","7","odd","legacy","304678","NA","116220","NA","NA","1918","NA","1931","95731","304678","307404","41664","92487","1919","mousetracking operator preview effect","0","0","0","no","false","no","1680"
"neutral","undefined","1","undefined","undefined","white","no","legacy","legacy","legacy","0","relative","undefined","undefined","53","NA","0","0","0","0","0","0","0","69","69","0","15","0","no","03/09/19 16:51:32","A simple template for the mouse-tracking paradigm","yes","Experiment-FT.osexp","C:\Users\Kristen\Documents\opPreviewExperiment-master\procedure","no","mono","no","24","no","black","no","yes","1050","legacy","53","15","C:/Users/Kristen/Documents/opPreviewExperiment-master/procedure/subject-7.csv","legacy","Kafkaesque Koffka","3.2.6","mult","0","a","NA","NA","l","l","20489","NA","NA","39731","20489","2","1730","legacy","large","1024","2","48000","-16","experiment","8_4_mult_FNI.jpg","7","odd","legacy","307425","NA","116220","NA","NA","1918","NA","1931","95731","307425","310134","41664","92487","1919","mousetracking operator preview effect","0","0","0","no","false","no","1680"
"neutral","undefined","1","undefined","undefined","white","no","legacy","legacy","legacy","0","relative","undefined","undefined","54","NA","0","0","0","0","0","0","0","70","70","0","15","0","no","03/09/19 16:51:32","A simple template for the mouse-tracking paradigm","yes","Experiment-FT.osexp","C:\Users\Kristen\Documents\opPreviewExperiment-master\procedure","no","mono","no","24","no","black","no","yes","1050","legacy","54","15","C:/Users/Kristen/Documents/opPreviewExperiment-master/procedure/subject-7.csv","legacy","Kafkaesque Koffka","3.2.6","mult","0","l","NA","NA","l","l","20489","NA","NA","39731","20489","2","2607","legacy","large","1024","2","48000","-16","experiment","9_7_mult_true.jpg","7","odd","legacy","310160","NA","116220","NA","NA","1918","NA","1931","95731","310160","313743","41664","92487","1919","mousetracking operator preview effect","0","0","0","no","true","no","1680"
"neutral","undefined","1","undefined","undefined","white","no","legacy","legacy","legacy","0","relative","undefined","undefined","55","NA","0","0","0","0","0","0","0","71","71","0","15","0","no","03/09/19 16:51:32","A simple template for the mouse-tracking paradigm","yes","Experiment-FT.osexp","C:\Users\Kristen\Documents\opPreviewExperiment-master\procedure","no","mono","no","24","no","black","no","yes","1050","legacy","55","15","C:/Users/Kristen/Documents/opPreviewExperiment-master/procedure/subject-7.csv","legacy","Kafkaesque Koffka","3.2.6","mult","0","a","NA","NA","l","l","20489","NA","NA","39731","20489","2","1632","legacy","small","1024","2","48000","-16","experiment","2_7_mult_FNI.jpg","7","odd","legacy","313775","NA","116220","NA","NA","1918","NA","1931","95731","313775","316385","41664","92487","1919","mousetracking operator preview effect","0","0","0","no","false","no","1680"
"negative","undefined","1","undefined","undefined","white","no","legacy","legacy","legacy","0","relative","undefined","undefined","56","NA","0","0","0","0","0","0","0","72","72","0","15","0","no","03/09/19 16:51:32","A simple template for the mouse-tracking paradigm","yes","Experiment-FT.osexp","C:\Users\Kristen\Documents\opPreviewExperiment-master\procedure","no","mono","no","24","no","black","no","yes","1050","legacy","56","15","C:/Users/Kristen/Documents/opPreviewExperiment-master/procedure/subject-7.csv","legacy","Kafkaesque Koffka","3.2.6","mult","0","l","NA","NA","l","l","20489","NA","NA","39731","20489","2","1161","legacy","large","1024","2","48000","-16","experiment","8_4_mult_true.jpg","7","odd","legacy","316407","NA","116220","NA","NA","1918","NA","1931","95731","316407","318709","41664","92487","1919","mousetracking operator preview effect","0","0","0","no","true","no","1680"
"neutral","undefined","1","undefined","undefined","white","no","legacy","legacy","legacy","0","relative","undefined","undefined","57","NA","0","0","0","0","0","0","0","73","73","0","15","0","no","03/09/19 16:51:32","A simple template for the mouse-tracking paradigm","yes","Experiment-FT.osexp","C:\Users\Kristen\Documents\opPreviewExperiment-master\procedure","no","mono","no","24","no","black","no","yes","1050","legacy","57","15","C:/Users/Kristen/Documents/opPreviewExperiment-master/procedure/subject-7.csv","legacy","Kafkaesque Koffka","3.2.6","add","0","a","NA","NA","l","l","20489","NA","NA","39731","20489","2","1595","legacy","small","1024","2","48000","-16","experiment","2_7_add_FNI.jpg","7","odd","legacy","318731","NA","116220","NA","NA","1918","NA","1931","95731","318731","321306","41664","92487","1919","mousetracking operator preview effect","0","0","0","no","false","no","1680"
"neutral","undefined","1","undefined","undefined","white","no","legacy","legacy","legacy","0","relative","undefined","undefined","58","NA","0","0","0","0","0","0","0","74","74","0","15","0","no","03/09/19 16:51:32","A simple template for the mouse-tracking paradigm","yes","Experiment-FT.osexp","C:\Users\Kristen\Documents\opPreviewExperiment-master\procedure","no","mono","no","24","no","black","no","yes","1050","legacy","58","15","C:/Users/Kristen/Documents/opPreviewExperiment-master/procedure/subject-7.csv","legacy","Kafkaesque Koffka","3.2.6","mult","0","a","NA","NA","l","l","20489","NA","NA","39731","20489","2","2100","legacy","large","1024","2","48000","-16","experiment","4_9_mult_FI.jpg","7","odd","legacy","321333","NA","116220","NA","NA","1918","NA","1931","95731","321333","324412","41664","92487","1919","mousetracking operator preview effect","0","0","0","no","false","no","1680"
"neutral","undefined","1","undefined","undefined","white","no","legacy","legacy","legacy","0","relative","undefined","undefined","59","NA","0","0","0","0","0","0","0","75","75","0","15","0","no","03/09/19 16:51:32","A simple template for the mouse-tracking paradigm","yes","Experiment-FT.osexp","C:\Users\Kristen\Documents\opPreviewExperiment-master\procedure","no","mono","no","24","no","black","no","yes","1050","legacy","59","15","C:/Users/Kristen/Documents/opPreviewExperiment-master/procedure/subject-7.csv","legacy","Kafkaesque Koffka","3.2.6","add","0","a","NA","NA","l","l","20489","NA","NA","39731","20489","2","3709","legacy","large","1024","2","48000","-16","experiment","8_4_add_FNI.jpg","7","odd","legacy","324438","NA","116220","NA","NA","1918","NA","1931","95731","324438","329117","41664","92487","1919","mousetracking operator preview effect","0","0","0","no","false","no","1680"
"negative","undefined","1","undefined","undefined","white","no","legacy","legacy","legacy","0","relative","undefined","undefined","60","NA","0","0","0","0","0","0","0","76","76","0","15","0","no","03/09/19 16:51:32","A simple template for the mouse-tracking paradigm","yes","Experiment-FT.osexp","C:\Users\Kristen\Documents\opPreviewExperiment-master\procedure","no","mono","no","24","no","black","no","yes","1050","legacy","60","15","C:/Users/Kristen/Documents/opPreviewExperiment-master/procedure/subject-7.csv","legacy","Kafkaesque Koffka","3.2.6","mult","0","l","NA","NA","l","l","20489","NA","NA","39731","20489","2","3512","legacy","large","1024","2","48000","-16","experiment","4_9_mult_true.jpg","7","odd","legacy","329138","NA","116220","NA","NA","1918","NA","1931","95731","329138","333781","41664","92487","1919","mousetracking operator preview effect","0","0","0","no","true","no","1680"
"negative","undefined","1","undefined","undefined","white","no","legacy","legacy","legacy","0","relative","undefined","undefined","61","NA","0","0","0","0","0","0","0","77","77","0","15","0","no","03/09/19 16:51:32","A simple template for the mouse-tracking paradigm","yes","Experiment-FT.osexp","C:\Users\Kristen\Documents\opPreviewExperiment-master\procedure","no","mono","no","24","no","black","no","yes","1050","legacy","61","15","C:/Users/Kristen/Documents/opPreviewExperiment-master/procedure/subject-7.csv","legacy","Kafkaesque Koffka","3.2.6","mult","0","a","NA","NA","l","l","20489","NA","NA","39731","20489","2","2800","legacy","small","1024","2","48000","-16","experiment","3_6_mult_FNI.jpg","7","odd","legacy","333801","NA","116220","NA","NA","1918","NA","1931","95731","333801","337746","41664","92487","1919","mousetracking operator preview effect","0","0","0","no","false","no","1680"
"negative","undefined","1","undefined","undefined","white","no","legacy","legacy","legacy","0","relative","undefined","undefined","62","NA","0","0","0","0","0","0","0","78","78","0","15","0","no","03/09/19 16:51:32","A simple template for the mouse-tracking paradigm","yes","Experiment-FT.osexp","C:\Users\Kristen\Documents\opPreviewExperiment-master\procedure","no","mono","no","24","no","black","no","yes","1050","legacy","62","15","C:/Users/Kristen/Documents/opPreviewExperiment-master/procedure/subject-7.csv","legacy","Kafkaesque Koffka","3.2.6","mult","0","l","NA","NA","l","l","20489","NA","NA","39731","20489","2","1464","legacy","small","1024","2","48000","-16","experiment","3_6_mult_true.jpg","7","odd","legacy","337774","NA","116220","NA","NA","1918","NA","1931","95731","337774","340385","41664","92487","1919","mousetracking operator preview effect","0","0","0","no","true","no","1680"
"neutral","undefined","1","undefined","undefined","white","no","legacy","legacy","legacy","0","relative","undefined","undefined","63","NA","0","0","0","0","0","0","0","79","79","0","15","0","no","03/09/19 16:51:32","A simple template for the mouse-tracking paradigm","yes","Experiment-FT.osexp","C:\Users\Kristen\Documents\opPreviewExperiment-master\procedure","no","mono","no","24","no","black","no","yes","1050","legacy","63","15","C:/Users/Kristen/Documents/opPreviewExperiment-master/procedure/subject-7.csv","legacy","Kafkaesque Koffka","3.2.6","add","0","a","NA","NA","l","l","20489","NA","NA","39731","20489","2","2693","legacy","large","1024","2","48000","-16","experiment","9_7_add_FI.jpg","7","odd","legacy","340406","NA","116220","NA","NA","1918","NA","1931","95731","340406","344070","41664","92487","1919","mousetracking operator preview effect","0","0","0","no","false","no","1680"
"neutral","undefined","1","undefined","undefined","white","no","legacy","legacy","legacy","0","relative","undefined","undefined","64","NA","0","0","0","0","0","0","0","80","80","0","15","0","no","03/09/19 16:51:32","A simple template for the mouse-tracking paradigm","yes","Experiment-FT.osexp","C:\Users\Kristen\Documents\opPreviewExperiment-master\procedure","no","mono","no","24","no","black","no","yes","1050","legacy","64","15","C:/Users/Kristen/Documents/opPreviewExperiment-master/procedure/subject-7.csv","legacy","Kafkaesque Koffka","3.2.6","mult","0","a","NA","NA","l","l","20489","NA","NA","39731","20489","2","2006","legacy","large","1024","2","48000","-16","experiment","8_4_mult_FI.jpg","7","odd","legacy","344099","NA","116220","NA","NA","1918","NA","1931","95731","344099","347082","41664","92487","1919","mousetracking operator preview effect","0","0","0","no","false","no","1680"
"negative","undefined","1","undefined","undefined","white","no","legacy","legacy","legacy","0","relative","undefined","undefined","65","NA","0","0","0","0","0","0","0","81","81","0","15","0","no","03/09/19 16:51:32","A simple template for the mouse-tracking paradigm","yes","Experiment-FT.osexp","C:\Users\Kristen\Documents\opPreviewExperiment-master\procedure","no","mono","no","24","no","black","no","yes","1050","legacy","65","15","C:/Users/Kristen/Documents/opPreviewExperiment-master/procedure/subject-7.csv","legacy","Kafkaesque Koffka","3.2.6","add","0","l","NA","NA","l","l","20489","NA","NA","39731","20489","2","1741","legacy","small","1024","2","48000","-16","experiment","3_6_add_true.jpg","7","odd","legacy","347113","NA","116220","NA","NA","1918","NA","1931","95731","347114","350010","41664","92487","1919","mousetracking operator preview effect","0","0","0","no","true","no","1680"
"neutral","undefined","1","undefined","undefined","white","no","legacy","legacy","legacy","0","relative","undefined","undefined","66","NA","0","0","0","0","0","0","0","82","82","0","15","0","no","03/09/19 16:51:32","A simple template for the mouse-tracking paradigm","yes","Experiment-FT.osexp","C:\Users\Kristen\Documents\opPreviewExperiment-master\procedure","no","mono","no","24","no","black","no","yes","1050","legacy","66","15","C:/Users/Kristen/Documents/opPreviewExperiment-master/procedure/subject-7.csv","legacy","Kafkaesque Koffka","3.2.6","mult","0","a","NA","NA","l","l","20489","NA","NA","39731","20489","2","4245","legacy","large","1024","2","48000","-16","experiment","9_7_mult_FNI.jpg","7","odd","legacy","350040","NA","116220","NA","NA","1918","NA","1931","95731","350040","355263","41664","92487","1919","mousetracking operator preview effect","0","0","0","no","false","no","1680"
"neutral","undefined","1","undefined","undefined","white","no","legacy","legacy","legacy","0","relative","undefined","undefined","67","NA","0","0","0","0","0","0","0","83","83","0","15","0","no","03/09/19 16:51:32","A simple template for the mouse-tracking paradigm","yes","Experiment-FT.osexp","C:\Users\Kristen\Documents\opPreviewExperiment-master\procedure","no","mono","no","24","no","black","no","yes","1050","legacy","67","15","C:/Users/Kristen/Documents/opPreviewExperiment-master/procedure/subject-7.csv","legacy","Kafkaesque Koffka","3.2.6","mult","0","a","NA","NA","l","l","20489","NA","NA","39731","20489","2","2281","legacy","small","1024","2","48000","-16","experiment","5_3_mult_FNI.jpg","7","odd","legacy","355293","NA","116220","NA","NA","1918","NA","1931","95731","355293","358549","41664","92487","1919","mousetracking operator preview effect","0","0","0","no","false","no","1680"
"neutral","undefined","1","undefined","undefined","white","no","legacy","legacy","legacy","0","relative","undefined","undefined","68","NA","0","0","0","0","0","0","0","84","84","0","15","0","no","03/09/19 16:51:32","A simple template for the mouse-tracking paradigm","yes","Experiment-FT.osexp","C:\Users\Kristen\Documents\opPreviewExperiment-master\procedure","no","mono","no","24","no","black","no","yes","1050","legacy","68","15","C:/Users/Kristen/Documents/opPreviewExperiment-master/procedure/subject-7.csv","legacy","Kafkaesque Koffka","3.2.6","add","0","l","NA","NA","l","l","20489","NA","NA","39731","20489","2","1399","legacy","small","1024","2","48000","-16","experiment","8_2_add_true.jpg","7","odd","legacy","358578","NA","116220","NA","NA","1918","NA","1931","95731","358578","360941","41664","92487","1919","mousetracking operator preview effect","0","0","0","no","true","no","1680"
"negative","undefined","1","undefined","undefined","white","no","legacy","legacy","legacy","0","relative","undefined","undefined","69","NA","0","0","0","0","0","0","0","85","85","0","15","0","no","03/09/19 16:51:32","A simple template for the mouse-tracking paradigm","yes","Experiment-FT.osexp","C:\Users\Kristen\Documents\opPreviewExperiment-master\procedure","no","mono","no","24","no","black","no","yes","1050","legacy","69","15","C:/Users/Kristen/Documents/opPreviewExperiment-master/procedure/subject-7.csv","legacy","Kafkaesque Koffka","3.2.6","mult","0","a","NA","NA","l","l","20489","NA","NA","39731","20489","2","1454","legacy","small","1024","2","48000","-16","experiment","2_7_mult_FNI.jpg","7","odd","legacy","360965","NA","116220","NA","NA","1918","NA","1931","95731","360965","363569","41664","92487","1919","mousetracking operator preview effect","0","0","0","no","false","no","1680"
"neutral","undefined","1","undefined","undefined","white","no","legacy","legacy","legacy","0","relative","undefined","undefined","70","NA","0","0","0","0","0","0","0","86","86","0","15","0","no","03/09/19 16:51:32","A simple template for the mouse-tracking paradigm","yes","Experiment-FT.osexp","C:\Users\Kristen\Documents\opPreviewExperiment-master\procedure","no","mono","no","24","no","black","no","yes","1050","legacy","70","15","C:/Users/Kristen/Documents/opPreviewExperiment-master/procedure/subject-7.csv","legacy","Kafkaesque Koffka","3.2.6","mult","0","l","NA","NA","l","l","20489","NA","NA","39731","20489","2","2832","legacy","large","1024","2","48000","-16","experiment","4_9_mult_true.jpg","7","odd","legacy","363589","NA","116220","NA","NA","1918","NA","1931","95731","363589","367396","41664","92487","1919","mousetracking operator preview effect","0","0","0","no","true","no","1680"
"neutral","undefined","1","undefined","undefined","white","no","legacy","legacy","legacy","0","relative","undefined","undefined","71","NA","0","0","0","0","0","0","0","87","87","0","15","0","no","03/09/19 16:51:32","A simple template for the mouse-tracking paradigm","yes","Experiment-FT.osexp","C:\Users\Kristen\Documents\opPreviewExperiment-master\procedure","no","mono","no","24","no","black","no","yes","1050","legacy","71","15","C:/Users/Kristen/Documents/opPreviewExperiment-master/procedure/subject-7.csv","legacy","Kafkaesque Koffka","3.2.6","mult","0","a","NA","NA","l","l","20489","NA","NA","39731","20489","2","1641","legacy","small","1024","2","48000","-16","experiment","5_3_mult_FI.jpg","7","odd","legacy","367417","NA","116220","NA","NA","1918","NA","1931","95731","367417","370035","41664","92487","1919","mousetracking operator preview effect","0","0","0","no","false","no","1680"
"neutral","undefined","1","undefined","undefined","white","no","legacy","legacy","legacy","0","relative","undefined","undefined","72","NA","0","0","0","0","0","0","0","88","88","0","15","0","no","03/09/19 16:51:32","A simple template for the mouse-tracking paradigm","yes","Experiment-FT.osexp","C:\Users\Kristen\Documents\opPreviewExperiment-master\procedure","no","mono","no","24","no","black","no","yes","1050","legacy","72","15","C:/Users/Kristen/Documents/opPreviewExperiment-master/procedure/subject-7.csv","legacy","Kafkaesque Koffka","3.2.6","mult","0","a","NA","NA","l","l","20489","NA","NA","39731","20489","2","2558","legacy","large","1024","2","48000","-16","experiment","6_8_mult_FNI.jpg","7","odd","legacy","370066","NA","116220","NA","NA","1918","NA","1931","95731","370066","373583","41664","92487","1919","mousetracking operator preview effect","0","0","0","no","false","no","1680"
"negative","undefined","1","undefined","undefined","white","no","legacy","legacy","legacy","0","relative","undefined","undefined","73","NA","0","0","0","0","0","0","0","89","89","0","15","0","no","03/09/19 16:51:32","A simple template for the mouse-tracking paradigm","yes","Experiment-FT.osexp","C:\Users\Kristen\Documents\opPreviewExperiment-master\procedure","no","mono","no","24","no","black","no","yes","1050","legacy","73","15","C:/Users/Kristen/Documents/opPreviewExperiment-master/procedure/subject-7.csv","legacy","Kafkaesque Koffka","3.2.6","mult","0","l","NA","NA","l","l","20489","NA","NA","39731","20489","2","2419","legacy","small","1024","2","48000","-16","experiment","5_3_mult_true.jpg","7","odd","legacy","373607","NA","116220","NA","NA","1918","NA","1931","95731","373607","377175","41664","92487","1919","mousetracking operator preview effect","0","0","0","no","true","no","1680"
"negative","undefined","1","undefined","undefined","white","no","legacy","legacy","legacy","0","relative","undefined","undefined","74","NA","0","0","0","0","0","0","0","90","90","0","15","0","no","03/09/19 16:51:32","A simple template for the mouse-tracking paradigm","yes","Experiment-FT.osexp","C:\Users\Kristen\Documents\opPreviewExperiment-master\procedure","no","mono","no","24","no","black","no","yes","1050","legacy","74","15","C:/Users/Kristen/Documents/opPreviewExperiment-master/procedure/subject-7.csv","legacy","Kafkaesque Koffka","3.2.6","add","0","a","NA","NA","l","l","20489","NA","NA","39731","20489","2","4416","legacy","large","1024","2","48000","-16","experiment","4_9_add_FI.jpg","7","odd","legacy","377198","NA","116220","NA","NA","1918","NA","1931","95731","377198","382759","41664","92487","1919","mousetracking operator preview effect","0","0","0","no","false","no","1680"
"negative","undefined","1","undefined","undefined","white","no","legacy","legacy","legacy","0","relative","undefined","undefined","75","NA","0","0","0","0","0","0","0","91","91","0","15","0","no","03/09/19 16:51:32","A simple template for the mouse-tracking paradigm","yes","Experiment-FT.osexp","C:\Users\Kristen\Documents\opPreviewExperiment-master\procedure","no","mono","no","24","no","black","no","yes","1050","legacy","75","15","C:/Users/Kristen/Documents/opPreviewExperiment-master/procedure/subject-7.csv","legacy","Kafkaesque Koffka","3.2.6","mult","0","a","NA","NA","l","l","20489","NA","NA","39731","20489","2","1865","legacy","small","1024","2","48000","-16","experiment","8_2_mult_FNI.jpg","7","odd","legacy","382788","NA","116220","NA","NA","1918","NA","1931","95731","382788","385783","41664","92487","1919","mousetracking operator preview effect","0","0","0","no","false","no","1680"
"neutral","undefined","1","undefined","undefined","white","no","legacy","legacy","legacy","0","relative","undefined","undefined","76","NA","0","0","0","0","0","0","0","92","92","0","15","0","no","03/09/19 16:51:32","A simple template for the mouse-tracking paradigm","yes","Experiment-FT.osexp","C:\Users\Kristen\Documents\opPreviewExperiment-master\procedure","no","mono","no","24","no","black","no","yes","1050","legacy","76","15","C:/Users/Kristen/Documents/opPreviewExperiment-master/procedure/subject-7.csv","legacy","Kafkaesque Koffka","3.2.6","add","0","l","NA","NA","l","l","20489","NA","NA","39731","20489","2","2676","legacy","large","1024","2","48000","-16","experiment","6_8_add_true.jpg","7","odd","legacy","385797","NA","116220","NA","NA","1918","NA","1931","95731","385797","389446","41664","92487","1919","mousetracking operator preview effect","0","0","0","no","true","no","1680"
"negative","undefined","1","undefined","undefined","white","no","legacy","legacy","legacy","0","relative","undefined","undefined","77","NA","0","0","0","0","0","0","0","93","93","0","15","0","no","03/09/19 16:51:32","A simple template for the mouse-tracking paradigm","yes","Experiment-FT.osexp","C:\Users\Kristen\Documents\opPreviewExperiment-master\procedure","no","mono","no","24","no","black","no","yes","1050","legacy","77","15","C:/Users/Kristen/Documents/opPreviewExperiment-master/procedure/subject-7.csv","legacy","Kafkaesque Koffka","3.2.6","mult","0","l","NA","NA","l","l","20489","NA","NA","39731","20489","2","3099","legacy","large","1024","2","48000","-16","experiment","4_9_mult_true.jpg","7","odd","legacy","389475","NA","116220","NA","NA","1918","NA","1931","95731","389475","393723","41664","92487","1919","mousetracking operator preview effect","0","0","0","no","true","no","1680"
"neutral","undefined","1","undefined","undefined","white","no","legacy","legacy","legacy","0","relative","undefined","undefined","78","NA","0","0","0","0","0","0","0","94","94","0","15","0","no","03/09/19 16:51:32","A simple template for the mouse-tracking paradigm","yes","Experiment-FT.osexp","C:\Users\Kristen\Documents\opPreviewExperiment-master\procedure","no","mono","no","24","no","black","no","yes","1050","legacy","78","15","C:/Users/Kristen/Documents/opPreviewExperiment-master/procedure/subject-7.csv","legacy","Kafkaesque Koffka","3.2.6","add","0","l","NA","NA","l","l","20489","NA","NA","39731","20489","2","1693","legacy","small","1024","2","48000","-16","experiment","2_7_add_true.jpg","7","odd","legacy","393746","NA","116220","NA","NA","1918","NA","1931","95731","393747","396413","41664","92487","1919","mousetracking operator preview effect","0","0","0","no","true","no","1680"
"neutral","undefined","1","undefined","undefined","white","no","legacy","legacy","legacy","0","relative","undefined","undefined","79","NA","0","0","0","0","0","0","0","95","95","0","15","0","no","03/09/19 16:51:32","A simple template for the mouse-tracking paradigm","yes","Experiment-FT.osexp","C:\Users\Kristen\Documents\opPreviewExperiment-master\procedure","no","mono","no","24","no","black","no","yes","1050","legacy","79","15","C:/Users/Kristen/Documents/opPreviewExperiment-master/procedure/subject-7.csv","legacy","Kafkaesque Koffka","3.2.6","mult","0","a","NA","NA","l","l","20489","NA","NA","39731","20489","2","1402","legacy","small","1024","2","48000","-16","experiment","2_7_mult_FI.jpg","7","odd","legacy","396441","NA","116220","NA","NA","1918","NA","1931","95731","396441","398823","41664","92487","1919","mousetracking operator preview effect","0","0","0","no","false","no","1680"
"negative","undefined","1","undefined","undefined","white","no","legacy","legacy","legacy","0","relative","undefined","undefined","80","NA","0","0","0","0","0","0","0","96","96","0","15","0","no","03/09/19 16:51:32","A simple template for the mouse-tracking paradigm","yes","Experiment-FT.osexp","C:\Users\Kristen\Documents\opPreviewExperiment-master\procedure","no","mono","no","24","no","black","no","yes","1050","legacy","80","15","C:/Users/Kristen/Documents/opPreviewExperiment-master/procedure/subject-7.csv","legacy","Kafkaesque Koffka","3.2.6","mult","0","a","NA","NA","l","l","20489","NA","NA","39731","20489","2","2172","legacy","large","1024","2","48000","-16","experiment","6_8_mult_FI.jpg","7","odd","legacy","398847","NA","116220","NA","NA","1918","NA","1931","95731","398847","402160","41664","92487","1919","mousetracking operator preview effect","0","0","0","no","false","no","1680"
"negative","undefined","1","undefined","undefined","white","no","legacy","legacy","legacy","0","relative","undefined","undefined","81","NA","0","0","0","0","0","0","0","97","97","0","15","0","no","03/09/19 16:51:32","A simple template for the mouse-tracking paradigm","yes","Experiment-FT.osexp","C:\Users\Kristen\Documents\opPreviewExperiment-master\procedure","no","mono","no","24","no","black","no","yes","1050","legacy","81","15","C:/Users/Kristen/Documents/opPreviewExperiment-master/procedure/subject-7.csv","legacy","Kafkaesque Koffka","3.2.6","add","0","l","NA","NA","l","l","20489","NA","NA","39731","20489","2","1480","legacy","large","1024","2","48000","-16","experiment","6_8_add_true.jpg","7","odd","legacy","402191","NA","116220","NA","NA","1918","NA","1931","95731","402191","404825","41664","92487","1919","mousetracking operator preview effect","0","0","0","no","true","no","1680"
"negative","undefined","1","undefined","undefined","white","no","legacy","legacy","legacy","0","relative","undefined","undefined","82","NA","0","0","0","0","0","0","0","98","98","0","15","0","no","03/09/19 16:51:32","A simple template for the mouse-tracking paradigm","yes","Experiment-FT.osexp","C:\Users\Kristen\Documents\opPreviewExperiment-master\procedure","no","mono","no","24","no","black","no","yes","1050","legacy","82","15","C:/Users/Kristen/Documents/opPreviewExperiment-master/procedure/subject-7.csv","legacy","Kafkaesque Koffka","3.2.6","add","0","a","NA","NA","l","l","20489","NA","NA","39731","20489","2","1450","legacy","small","1024","2","48000","-16","experiment","2_7_add_FNI.jpg","7","odd","legacy","404845","NA","116220","NA","NA","1918","NA","1931","95731","404845","407443","41664","92487","1919","mousetracking operator preview effect","0","0","0","no","false","no","1680"
"neutral","undefined","1","undefined","undefined","white","no","legacy","legacy","legacy","0","relative","undefined","undefined","83","NA","0","0","0","0","0","0","0","99","99","0","15","0","no","03/09/19 16:51:32","A simple template for the mouse-tracking paradigm","yes","Experiment-FT.osexp","C:\Users\Kristen\Documents\opPreviewExperiment-master\procedure","no","mono","no","24","no","black","no","yes","1050","legacy","83","15","C:/Users/Kristen/Documents/opPreviewExperiment-master/procedure/subject-7.csv","legacy","Kafkaesque Koffka","3.2.6","add","0","a","NA","NA","l","l","20489","NA","NA","39731","20489","2","1339","legacy","small","1024","2","48000","-16","experiment","8_2_add_FI.jpg","7","odd","legacy","407464","NA","116220","NA","NA","1918","NA","1931","95731","407465","409772","41664","92487","1919","mousetracking operator preview effect","0","0","0","no","false","no","1680"
"neutral","undefined","1","undefined","undefined","white","no","legacy","legacy","legacy","0","relative","undefined","undefined","84","NA","0","0","0","0","0","0","0","100","100","0","15","0","no","03/09/19 16:51:32","A simple template for the mouse-tracking paradigm","yes","Experiment-FT.osexp","C:\Users\Kristen\Documents\opPreviewExperiment-master\procedure","no","mono","no","24","no","black","no","yes","1050","legacy","84","15","C:/Users/Kristen/Documents/opPreviewExperiment-master/procedure/subject-7.csv","legacy","Kafkaesque Koffka","3.2.6","add","0","a","NA","NA","l","l","20489","NA","NA","39731","20489","2","3489","legacy","large","1024","2","48000","-16","experiment","6_8_add_FNI.jpg","7","odd","legacy","409803","NA","116220","NA","NA","1918","NA","1931","95731","409803","414273","41664","92487","1919","mousetracking operator preview effect","0","0","0","no","false","no","1680"
"neutral","undefined","1","undefined","undefined","white","no","legacy","legacy","legacy","0","relative","undefined","undefined","85","NA","0","0","0","0","0","0","0","101","101","0","15","0","no","03/09/19 16:51:32","A simple template for the mouse-tracking paradigm","yes","Experiment-FT.osexp","C:\Users\Kristen\Documents\opPreviewExperiment-master\procedure","no","mono","no","24","no","black","no","yes","1050","legacy","85","15","C:/Users/Kristen/Documents/opPreviewExperiment-master/procedure/subject-7.csv","legacy","Kafkaesque Koffka","3.2.6","mult","0","a","NA","NA","l","l","20489","NA","NA","39731","20489","2","1896","legacy","large","1024","2","48000","-16","experiment","4_9_mult_FNI.jpg","7","odd","legacy","414304","NA","116220","NA","NA","1918","NA","1931","95731","414304","417175","41664","92487","1919","mousetracking operator preview effect","0","0","0","no","false","no","1680"
"negative","undefined","1","undefined","undefined","white","no","legacy","legacy","legacy","0","relative","undefined","undefined","86","NA","0","0","0","0","0","0","0","102","102","0","15","0","no","03/09/19 16:51:32","A simple template for the mouse-tracking paradigm","yes","Experiment-FT.osexp","C:\Users\Kristen\Documents\opPreviewExperiment-master\procedure","no","mono","no","24","no","black","no","yes","1050","legacy","86","15","C:/Users/Kristen/Documents/opPreviewExperiment-master/procedure/subject-7.csv","legacy","Kafkaesque Koffka","3.2.6","mult","0","a","NA","NA","l","l","20489","NA","NA","39731","20489","2","1632","legacy","small","1024","2","48000","-16","experiment","3_6_mult_FI.jpg","7","odd","legacy","417199","NA","116220","NA","NA","1918","NA","1931","95731","417199","419982","41664","92487","1919","mousetracking operator preview effect","0","0","0","no","false","no","1680"
"neutral","undefined","1","undefined","undefined","white","no","legacy","legacy","legacy","0","relative","undefined","undefined","87","NA","0","0","0","0","0","0","0","103","103","0","15","0","no","03/09/19 16:51:32","A simple template for the mouse-tracking paradigm","yes","Experiment-FT.osexp","C:\Users\Kristen\Documents\opPreviewExperiment-master\procedure","no","mono","no","24","no","black","no","yes","1050","legacy","87","15","C:/Users/Kristen/Documents/opPreviewExperiment-master/procedure/subject-7.csv","legacy","Kafkaesque Koffka","3.2.6","mult","0","l","NA","NA","l","l","20489","NA","NA","39731","20489","2","1186","legacy","small","1024","2","48000","-16","experiment","5_3_mult_true.jpg","7","odd","legacy","420002","NA","116220","NA","NA","1918","NA","1931","95731","420003","422145","41664","92487","1919","mousetracking operator preview effect","0","0","0","no","true","no","1680"
"negative","undefined","1","undefined","undefined","white","no","legacy","legacy","legacy","0","relative","undefined","undefined","88","NA","0","0","0","0","0","0","0","104","104","0","15","0","no","03/09/19 16:51:32","A simple template for the mouse-tracking paradigm","yes","Experiment-FT.osexp","C:\Users\Kristen\Documents\opPreviewExperiment-master\procedure","no","mono","no","24","no","black","no","yes","1050","legacy","88","15","C:/Users/Kristen/Documents/opPreviewExperiment-master/procedure/subject-7.csv","legacy","Kafkaesque Koffka","3.2.6","mult","0","l","NA","NA","l","l","20489","NA","NA","39731","20489","2","1116","legacy","small","1024","2","48000","-16","experiment","8_2_mult_true.jpg","7","odd","legacy","422167","NA","116220","NA","NA","1918","NA","1931","95731","422167","424432","41664","92487","1919","mousetracking operator preview effect","0","0","0","no","true","no","1680"
"negative","undefined","1","undefined","undefined","white","no","legacy","legacy","legacy","0","relative","undefined","undefined","89","NA","0","0","0","0","0","0","0","105","105","0","15","0","no","03/09/19 16:51:32","A simple template for the mouse-tracking paradigm","yes","Experiment-FT.osexp","C:\Users\Kristen\Documents\opPreviewExperiment-master\procedure","no","mono","no","24","no","black","no","yes","1050","legacy","89","15","C:/Users/Kristen/Documents/opPreviewExperiment-master/procedure/subject-7.csv","legacy","Kafkaesque Koffka","3.2.6","mult","0","a","NA","NA","l","l","20489","NA","NA","39731","20489","2","1450","legacy","large","1024","2","48000","-16","experiment","9_7_mult_FI.jpg","7","odd","legacy","424460","NA","116220","NA","NA","1918","NA","1931","95731","424460","427065","41664","92487","1919","mousetracking operator preview effect","0","0","0","no","false","no","1680"
"negative","undefined","1","undefined","undefined","white","no","legacy","legacy","legacy","0","relative","undefined","undefined","90","NA","0","0","0","0","0","0","0","106","106","0","15","0","no","03/09/19 16:51:32","A simple template for the mouse-tracking paradigm","yes","Experiment-FT.osexp","C:\Users\Kristen\Documents\opPreviewExperiment-master\procedure","no","mono","no","24","no","black","no","yes","1050","legacy","90","15","C:/Users/Kristen/Documents/opPreviewExperiment-master/procedure/subject-7.csv","legacy","Kafkaesque Koffka","3.2.6","mult","0","a","NA","NA","l","l","20489","NA","NA","39731","20489","2","1634","legacy","large","1024","2","48000","-16","experiment","4_9_mult_FI.jpg","7","odd","legacy","427082","NA","116220","NA","NA","1918","NA","1931","95731","427082","429854","41664","92487","1919","mousetracking operator preview effect","0","0","0","no","false","no","1680"
"negative","undefined","1","undefined","undefined","white","no","legacy","legacy","legacy","0","relative","undefined","undefined","91","NA","0","0","0","0","0","0","0","107","107","0","15","0","no","03/09/19 16:51:32","A simple template for the mouse-tracking paradigm","yes","Experiment-FT.osexp","C:\Users\Kristen\Documents\opPreviewExperiment-master\procedure","no","mono","no","24","no","black","no","yes","1050","legacy","91","15","C:/Users/Kristen/Documents/opPreviewExperiment-master/procedure/subject-7.csv","legacy","Kafkaesque Koffka","3.2.6","add","0","l","NA","NA","l","l","20489","NA","NA","39731","20489","2","1342","legacy","small","1024","2","48000","-16","experiment","3_6_add_true.jpg","7","odd","legacy","429875","NA","116220","NA","NA","1918","NA","1931","95731","429875","432365","41664","92487","1919","mousetracking operator preview effect","0","0","0","no","true","no","1680"
"negative","undefined","1","undefined","undefined","white","no","legacy","legacy","legacy","0","relative","undefined","undefined","92","NA","0","0","0","0","0","0","0","108","108","0","15","0","no","03/09/19 16:51:32","A simple template for the mouse-tracking paradigm","yes","Experiment-FT.osexp","C:\Users\Kristen\Documents\opPreviewExperiment-master\procedure","no","mono","no","24","no","black","no","yes","1050","legacy","92","15","C:/Users/Kristen/Documents/opPreviewExperiment-master/procedure/subject-7.csv","legacy","Kafkaesque Koffka","3.2.6","mult","0","a","NA","NA","l","l","20489","NA","NA","39731","20489","2","1286","legacy","small","1024","2","48000","-16","experiment","8_2_mult_FI.jpg","7","odd","legacy","432387","NA","116220","NA","NA","1918","NA","1931","95731","432387","434813","41664","92487","1919","mousetracking operator preview effect","0","0","0","no","false","no","1680"
