"SOAcondition","acc","accuracy","average_response_time","avg_rt","background","bidi","canvas_backend","clock_backend","color_backend","compensation","coordinates","correct","correct_instruction1","count_block1_sequence","count_block2_sequence","count_block_1","count_block_2","count_breakScreen","count_experiment","count_finish","count_instruction1","count_instruction2","count_keyboard_script","count_logger","count_practiceBlock","count_practice_sequence","count_setup_script","custom_cursor","datetime","description","disable_garbage_collection","experiment_file","experiment_path","font_bold","font_family","font_italic","font_size","font_underline","foreground","form_clicks","fullscreen","height","keyboard_backend","live_row","live_row_practiceBlock","logfile","mouse_backend","opensesame_codename","opensesame_version","operation","repeat_cycle","response","response_breakScreen","response_finish","response_instruction1","response_instruction2","response_time","response_time_breakScreen","response_time_finish","response_time_instruction1","response_time_instruction2","round_decimals","rt","sampler_backend","size","sound_buf_size","sound_channels","sound_freq","sound_sample_size","start","stimulus","subject_nr","subject_parity","synth_backend","time_block1_sequence","time_block2_sequence","time_block_1","time_block_2","time_breakScreen","time_experiment","time_finish","time_instruction1","time_instruction2","time_keyboard_script","time_logger","time_practiceBlock","time_practice_sequence","time_setup_script","title","total_correct","total_response_time","total_responses","transparent_variables","truth","uniform_coordinates","width"
"neutral","undefined","0","undefined","undefined","white","no","legacy","legacy","legacy","0","relative","undefined","undefined","NA","NA","0","0","0","0","0","0","0","0","0","0","0","0","no","04/29/19 11:58:28","A simple template for the mouse-tracking paradigm","yes","Experiment-FT.osexp","C:\Users\Kristen\Documents\opPreviewExperiment-master\procedure","no","mono","no","24","no","black","no","yes","1050","legacy","0","0","C:/Users/Kristen/Documents/opPreviewExperiment-master/procedure/subject-22.csv","legacy","Kafkaesque Koffka","3.2.6","mult","0","l","NA","NA","l","NA","20160","NA","NA","20160","NA","2","5861","legacy","NA","1024","2","48000","-16","experiment","0_3_mult_F.jpg","22","even","legacy","NA","NA","NA","NA","NA","2984","NA","2997","NA","23161","31082","23158","23160","2985","mousetracking operator preview effect","0","0","0","no","false","no","1680"
"negative","undefined","1","undefined","undefined","white","no","legacy","legacy","legacy","0","relative","undefined","undefined","NA","NA","0","0","0","0","0","0","0","1","1","0","1","0","no","04/29/19 11:58:28","A simple template for the mouse-tracking paradigm","yes","Experiment-FT.osexp","C:\Users\Kristen\Documents\opPreviewExperiment-master\procedure","no","mono","no","24","no","black","no","yes","1050","legacy","1","1","C:/Users/Kristen/Documents/opPreviewExperiment-master/procedure/subject-22.csv","legacy","Kafkaesque Koffka","3.2.6","mult","0","a","NA","NA","l","NA","20160","NA","NA","20160","NA","2","2990","legacy","NA","1024","2","48000","-16","experiment","1_4_mult_F.jpg","22","even","legacy","NA","NA","NA","NA","NA","2984","NA","2997","NA","31112","35261","23158","31112","2985","mousetracking operator preview effect","0","0","0","no","false","no","1680"
"neutral","undefined","1","undefined","undefined","white","no","legacy","legacy","legacy","0","relative","undefined","undefined","NA","NA","0","0","0","0","0","0","0","2","2","0","2","0","no","04/29/19 11:58:28","A simple template for the mouse-tracking paradigm","yes","Experiment-FT.osexp","C:\Users\Kristen\Documents\opPreviewExperiment-master\procedure","no","mono","no","24","no","black","no","yes","1050","legacy","2","2","C:/Users/Kristen/Documents/opPreviewExperiment-master/procedure/subject-22.csv","legacy","Kafkaesque Koffka","3.2.6","mult","0","l","NA","NA","l","NA","20160","NA","NA","20160","NA","2","2292","legacy","NA","1024","2","48000","-16","experiment","1_4_mult_T.jpg","22","even","legacy","NA","NA","NA","NA","NA","2984","NA","2997","NA","35281","38529","23158","35281","2985","mousetracking operator preview effect","0","0","0","no","true","no","1680"
"negative","undefined","1","undefined","undefined","white","no","legacy","legacy","legacy","0","relative","undefined","undefined","NA","NA","0","0","0","0","0","0","0","3","3","0","3","0","no","04/29/19 11:58:28","A simple template for the mouse-tracking paradigm","yes","Experiment-FT.osexp","C:\Users\Kristen\Documents\opPreviewExperiment-master\procedure","no","mono","no","24","no","black","no","yes","1050","legacy","3","3","C:/Users/Kristen/Documents/opPreviewExperiment-master/procedure/subject-22.csv","legacy","Kafkaesque Koffka","3.2.6","mult","0","l","NA","NA","l","NA","20160","NA","NA","20160","NA","2","1551","legacy","NA","1024","2","48000","-16","experiment","1_4_mult_T.jpg","22","even","legacy","NA","NA","NA","NA","NA","2984","NA","2997","NA","38554","41250","23158","38554","2985","mousetracking operator preview effect","0","0","0","no","true","no","1680"
"neutral","undefined","1","undefined","undefined","white","no","legacy","legacy","legacy","0","relative","undefined","undefined","NA","NA","0","0","0","0","0","0","0","4","4","0","4","0","no","04/29/19 11:58:28","A simple template for the mouse-tracking paradigm","yes","Experiment-FT.osexp","C:\Users\Kristen\Documents\opPreviewExperiment-master\procedure","no","mono","no","24","no","black","no","yes","1050","legacy","4","4","C:/Users/Kristen/Documents/opPreviewExperiment-master/procedure/subject-22.csv","legacy","Kafkaesque Koffka","3.2.6","mult","0","l","NA","NA","l","NA","20160","NA","NA","20160","NA","2","2078","legacy","NA","1024","2","48000","-16","experiment","0_3_mult_T.jpg","22","even","legacy","NA","NA","NA","NA","NA","2984","NA","2997","NA","41272","44345","23158","41272","2985","mousetracking operator preview effect","0","0","0","no","true","no","1680"
"neutral","undefined","0","undefined","undefined","white","no","legacy","legacy","legacy","0","relative","undefined","undefined","NA","NA","0","0","0","0","0","0","0","5","5","0","5","0","no","04/29/19 11:58:28","A simple template for the mouse-tracking paradigm","yes","Experiment-FT.osexp","C:\Users\Kristen\Documents\opPreviewExperiment-master\procedure","no","mono","no","24","no","black","no","yes","1050","legacy","5","5","C:/Users/Kristen/Documents/opPreviewExperiment-master/procedure/subject-22.csv","legacy","Kafkaesque Koffka","3.2.6","add","0","a","NA","NA","l","NA","20160","NA","NA","20160","NA","2","1537","legacy","NA","1024","2","48000","-16","experiment","1_4_add_T.jpg","22","even","legacy","NA","NA","NA","NA","NA","2984","NA","2997","NA","44378","47936","23158","44378","2985","mousetracking operator preview effect","0","0","0","no","true","no","1680"
"neutral","undefined","1","undefined","undefined","white","no","legacy","legacy","legacy","0","relative","undefined","undefined","NA","NA","0","0","0","0","0","0","0","6","6","0","6","0","no","04/29/19 11:58:28","A simple template for the mouse-tracking paradigm","yes","Experiment-FT.osexp","C:\Users\Kristen\Documents\opPreviewExperiment-master\procedure","no","mono","no","24","no","black","no","yes","1050","legacy","6","6","C:/Users/Kristen/Documents/opPreviewExperiment-master/procedure/subject-22.csv","legacy","Kafkaesque Koffka","3.2.6","add","0","a","NA","NA","l","NA","20160","NA","NA","20160","NA","2","1389","legacy","NA","1024","2","48000","-16","experiment","0_3_add_F.jpg","22","even","legacy","NA","NA","NA","NA","NA","2984","NA","2997","NA","47978","50385","23158","47978","2985","mousetracking operator preview effect","0","0","0","no","false","no","1680"
"neutral","undefined","1","undefined","undefined","white","no","legacy","legacy","legacy","0","relative","undefined","undefined","NA","NA","0","0","0","0","0","0","0","7","7","0","7","0","no","04/29/19 11:58:28","A simple template for the mouse-tracking paradigm","yes","Experiment-FT.osexp","C:\Users\Kristen\Documents\opPreviewExperiment-master\procedure","no","mono","no","24","no","black","no","yes","1050","legacy","7","7","C:/Users/Kristen/Documents/opPreviewExperiment-master/procedure/subject-22.csv","legacy","Kafkaesque Koffka","3.2.6","add","0","a","NA","NA","l","NA","20160","NA","NA","20160","NA","2","1223","legacy","NA","1024","2","48000","-16","experiment","1_4_add_F.jpg","22","even","legacy","NA","NA","NA","NA","NA","2984","NA","2997","NA","50405","52633","23158","50405","2985","mousetracking operator preview effect","0","0","0","no","false","no","1680"
"neutral","undefined","1","undefined","undefined","white","no","legacy","legacy","legacy","0","relative","undefined","undefined","NA","NA","0","0","0","0","0","0","0","8","8","0","8","0","no","04/29/19 11:58:28","A simple template for the mouse-tracking paradigm","yes","Experiment-FT.osexp","C:\Users\Kristen\Documents\opPreviewExperiment-master\procedure","no","mono","no","24","no","black","no","yes","1050","legacy","8","8","C:/Users/Kristen/Documents/opPreviewExperiment-master/procedure/subject-22.csv","legacy","Kafkaesque Koffka","3.2.6","add","0","l","NA","NA","l","NA","20160","NA","NA","20160","NA","2","1677","legacy","NA","1024","2","48000","-16","experiment","0_3_add_T.jpg","22","even","legacy","NA","NA","NA","NA","NA","2984","NA","2997","NA","52654","55325","23158","52654","2985","mousetracking operator preview effect","0","0","0","no","true","no","1680"
"negative","undefined","1","undefined","undefined","white","no","legacy","legacy","legacy","0","relative","undefined","undefined","NA","NA","0","0","0","0","0","0","0","9","9","0","9","0","no","04/29/19 11:58:28","A simple template for the mouse-tracking paradigm","yes","Experiment-FT.osexp","C:\Users\Kristen\Documents\opPreviewExperiment-master\procedure","no","mono","no","24","no","black","no","yes","1050","legacy","9","9","C:/Users/Kristen/Documents/opPreviewExperiment-master/procedure/subject-22.csv","legacy","Kafkaesque Koffka","3.2.6","mult","0","l","NA","NA","l","NA","20160","NA","NA","20160","NA","2","982","legacy","NA","1024","2","48000","-16","experiment","0_3_mult_T.jpg","22","even","legacy","NA","NA","NA","NA","NA","2984","NA","2997","NA","55346","57479","23158","55346","2985","mousetracking operator preview effect","0","0","0","no","true","no","1680"
"negative","undefined","1","undefined","undefined","white","no","legacy","legacy","legacy","0","relative","undefined","undefined","NA","NA","0","0","0","0","0","0","0","10","10","0","10","0","no","04/29/19 11:58:28","A simple template for the mouse-tracking paradigm","yes","Experiment-FT.osexp","C:\Users\Kristen\Documents\opPreviewExperiment-master\procedure","no","mono","no","24","no","black","no","yes","1050","legacy","10","10","C:/Users/Kristen/Documents/opPreviewExperiment-master/procedure/subject-22.csv","legacy","Kafkaesque Koffka","3.2.6","add","0","l","NA","NA","l","NA","20160","NA","NA","20160","NA","2","1676","legacy","NA","1024","2","48000","-16","experiment","1_4_add_T.jpg","22","even","legacy","NA","NA","NA","NA","NA","2984","NA","2997","NA","57507","60352","23158","57507","2985","mousetracking operator preview effect","0","0","0","no","true","no","1680"
"neutral","undefined","1","undefined","undefined","white","no","legacy","legacy","legacy","0","relative","undefined","undefined","NA","NA","0","0","0","0","0","0","0","11","11","0","11","0","no","04/29/19 11:58:28","A simple template for the mouse-tracking paradigm","yes","Experiment-FT.osexp","C:\Users\Kristen\Documents\opPreviewExperiment-master\procedure","no","mono","no","24","no","black","no","yes","1050","legacy","11","11","C:/Users/Kristen/Documents/opPreviewExperiment-master/procedure/subject-22.csv","legacy","Kafkaesque Koffka","3.2.6","mult","0","a","NA","NA","l","NA","20160","NA","NA","20160","NA","2","1861","legacy","NA","1024","2","48000","-16","experiment","1_4_mult_F.jpg","22","even","legacy","NA","NA","NA","NA","NA","2984","NA","2997","NA","60374","63209","23158","60374","2985","mousetracking operator preview effect","0","0","0","no","false","no","1680"
"negative","undefined","1","undefined","undefined","white","no","legacy","legacy","legacy","0","relative","undefined","undefined","NA","NA","0","0","0","0","0","0","0","12","12","0","12","0","no","04/29/19 11:58:28","A simple template for the mouse-tracking paradigm","yes","Experiment-FT.osexp","C:\Users\Kristen\Documents\opPreviewExperiment-master\procedure","no","mono","no","24","no","black","no","yes","1050","legacy","12","12","C:/Users/Kristen/Documents/opPreviewExperiment-master/procedure/subject-22.csv","legacy","Kafkaesque Koffka","3.2.6","mult","0","a","NA","NA","l","NA","20160","NA","NA","20160","NA","2","1438","legacy","NA","1024","2","48000","-16","experiment","0_3_mult_F.jpg","22","even","legacy","NA","NA","NA","NA","NA","2984","NA","2997","NA","63223","65808","23158","63223","2985","mousetracking operator preview effect","0","0","0","no","false","no","1680"
"negative","undefined","1","undefined","undefined","white","no","legacy","legacy","legacy","0","relative","undefined","undefined","NA","NA","0","0","0","0","0","0","0","13","13","0","13","0","no","04/29/19 11:58:28","A simple template for the mouse-tracking paradigm","yes","Experiment-FT.osexp","C:\Users\Kristen\Documents\opPreviewExperiment-master\procedure","no","mono","no","24","no","black","no","yes","1050","legacy","13","13","C:/Users/Kristen/Documents/opPreviewExperiment-master/procedure/subject-22.csv","legacy","Kafkaesque Koffka","3.2.6","add","0","l","NA","NA","l","NA","20160","NA","NA","20160","NA","2","1103","legacy","NA","1024","2","48000","-16","experiment","0_3_add_T.jpg","22","even","legacy","NA","NA","NA","NA","NA","2984","NA","2997","NA","65830","68072","23158","65830","2985","mousetracking operator preview effect","0","0","0","no","true","no","1680"
"negative","undefined","1","undefined","undefined","white","no","legacy","legacy","legacy","0","relative","undefined","undefined","NA","NA","0","0","0","0","0","0","0","14","14","0","14","0","no","04/29/19 11:58:28","A simple template for the mouse-tracking paradigm","yes","Experiment-FT.osexp","C:\Users\Kristen\Documents\opPreviewExperiment-master\procedure","no","mono","no","24","no","black","no","yes","1050","legacy","14","14","C:/Users/Kristen/Documents/opPreviewExperiment-master/procedure/subject-22.csv","legacy","Kafkaesque Koffka","3.2.6","add","0","a","NA","NA","l","NA","20160","NA","NA","20160","NA","2","1034","legacy","NA","1024","2","48000","-16","experiment","0_3_add_F.jpg","22","even","legacy","NA","NA","NA","NA","NA","2984","NA","2997","NA","68093","70270","23158","68093","2985","mousetracking operator preview effect","0","0","0","no","false","no","1680"
"negative","undefined","1","undefined","undefined","white","no","legacy","legacy","legacy","0","relative","undefined","undefined","NA","NA","0","0","0","0","0","0","0","15","15","0","15","0","no","04/29/19 11:58:28","A simple template for the mouse-tracking paradigm","yes","Experiment-FT.osexp","C:\Users\Kristen\Documents\opPreviewExperiment-master\procedure","no","mono","no","24","no","black","no","yes","1050","legacy","15","15","C:/Users/Kristen/Documents/opPreviewExperiment-master/procedure/subject-22.csv","legacy","Kafkaesque Koffka","3.2.6","add","0","a","NA","NA","l","NA","20160","NA","NA","20160","NA","2","949","legacy","NA","1024","2","48000","-16","experiment","1_4_add_F.jpg","22","even","legacy","NA","NA","NA","NA","NA","2984","NA","2997","NA","70290","72387","23158","70290","2985","mousetracking operator preview effect","0","0","0","no","false","no","1680"
"neutral","undefined","1","undefined","undefined","white","no","legacy","legacy","legacy","0","relative","undefined","undefined","0","NA","0","0","0","0","0","0","0","16","16","0","15","0","no","04/29/19 11:58:28","A simple template for the mouse-tracking paradigm","yes","Experiment-FT.osexp","C:\Users\Kristen\Documents\opPreviewExperiment-master\procedure","no","mono","no","24","no","black","no","yes","1050","legacy","0","15","C:/Users/Kristen/Documents/opPreviewExperiment-master/procedure/subject-22.csv","legacy","Kafkaesque Koffka","3.2.6","add","0","a","NA","NA","l","l","4389","NA","NA","20160","4389","2","2312","legacy","small","1024","2","48000","-16","experiment","8_2_add_FNI.jpg","22","even","legacy","76803","NA","76799","NA","NA","2984","NA","2997","72410","76803","80105","23158","70290","2985","mousetracking operator preview effect","0","0","0","no","false","no","1680"
"negative","undefined","1","undefined","undefined","white","no","legacy","legacy","legacy","0","relative","undefined","undefined","1","NA","0","0","0","0","0","0","0","17","17","0","15","0","no","04/29/19 11:58:28","A simple template for the mouse-tracking paradigm","yes","Experiment-FT.osexp","C:\Users\Kristen\Documents\opPreviewExperiment-master\procedure","no","mono","no","24","no","black","no","yes","1050","legacy","1","15","C:/Users/Kristen/Documents/opPreviewExperiment-master/procedure/subject-22.csv","legacy","Kafkaesque Koffka","3.2.6","add","0","a","NA","NA","l","l","4389","NA","NA","20160","4389","2","1657","legacy","small","1024","2","48000","-16","experiment","3_6_add_FI.jpg","22","even","legacy","80129","NA","76799","NA","NA","2984","NA","2997","72410","80129","82952","23158","70290","2985","mousetracking operator preview effect","0","0","0","no","false","no","1680"
"neutral","undefined","1","undefined","undefined","white","no","legacy","legacy","legacy","0","relative","undefined","undefined","2","NA","0","0","0","0","0","0","0","18","18","0","15","0","no","04/29/19 11:58:28","A simple template for the mouse-tracking paradigm","yes","Experiment-FT.osexp","C:\Users\Kristen\Documents\opPreviewExperiment-master\procedure","no","mono","no","24","no","black","no","yes","1050","legacy","2","15","C:/Users/Kristen/Documents/opPreviewExperiment-master/procedure/subject-22.csv","legacy","Kafkaesque Koffka","3.2.6","add","0","a","NA","NA","l","l","4389","NA","NA","20160","4389","2","1622","legacy","large","1024","2","48000","-16","experiment","9_7_add_FNI.jpg","22","even","legacy","82972","NA","76799","NA","NA","2984","NA","2997","72410","82972","85592","23158","70290","2985","mousetracking operator preview effect","0","0","0","no","false","no","1680"
"negative","undefined","1","undefined","undefined","white","no","legacy","legacy","legacy","0","relative","undefined","undefined","3","NA","0","0","0","0","0","0","0","19","19","0","15","0","no","04/29/19 11:58:28","A simple template for the mouse-tracking paradigm","yes","Experiment-FT.osexp","C:\Users\Kristen\Documents\opPreviewExperiment-master\procedure","no","mono","no","24","no","black","no","yes","1050","legacy","3","15","C:/Users/Kristen/Documents/opPreviewExperiment-master/procedure/subject-22.csv","legacy","Kafkaesque Koffka","3.2.6","add","0","l","NA","NA","l","l","4389","NA","NA","20160","4389","2","1383","legacy","large","1024","2","48000","-16","experiment","4_9_add_true.jpg","22","even","legacy","85615","NA","76799","NA","NA","2984","NA","2997","72410","85615","88164","23158","70290","2985","mousetracking operator preview effect","0","0","0","no","true","no","1680"
"negative","undefined","1","undefined","undefined","white","no","legacy","legacy","legacy","0","relative","undefined","undefined","4","NA","0","0","0","0","0","0","0","20","20","0","15","0","no","04/29/19 11:58:28","A simple template for the mouse-tracking paradigm","yes","Experiment-FT.osexp","C:\Users\Kristen\Documents\opPreviewExperiment-master\procedure","no","mono","no","24","no","black","no","yes","1050","legacy","4","15","C:/Users/Kristen/Documents/opPreviewExperiment-master/procedure/subject-22.csv","legacy","Kafkaesque Koffka","3.2.6","mult","0","a","NA","NA","l","l","4389","NA","NA","20160","4389","2","1312","legacy","small","1024","2","48000","-16","experiment","5_3_mult_FNI.jpg","22","even","legacy","88185","NA","76799","NA","NA","2984","NA","2997","72410","88186","90650","23158","70290","2985","mousetracking operator preview effect","0","0","0","no","false","no","1680"
"neutral","undefined","1","undefined","undefined","white","no","legacy","legacy","legacy","0","relative","undefined","undefined","5","NA","0","0","0","0","0","0","0","21","21","0","15","0","no","04/29/19 11:58:28","A simple template for the mouse-tracking paradigm","yes","Experiment-FT.osexp","C:\Users\Kristen\Documents\opPreviewExperiment-master\procedure","no","mono","no","24","no","black","no","yes","1050","legacy","5","15","C:/Users/Kristen/Documents/opPreviewExperiment-master/procedure/subject-22.csv","legacy","Kafkaesque Koffka","3.2.6","add","0","l","NA","NA","l","l","4389","NA","NA","20160","4389","2","1753","legacy","large","1024","2","48000","-16","experiment","6_8_add_true.jpg","22","even","legacy","90671","NA","76799","NA","NA","2984","NA","2997","72410","90671","93426","23158","70290","2985","mousetracking operator preview effect","0","0","0","no","true","no","1680"
"neutral","undefined","1","undefined","undefined","white","no","legacy","legacy","legacy","0","relative","undefined","undefined","6","NA","0","0","0","0","0","0","0","22","22","0","15","0","no","04/29/19 11:58:28","A simple template for the mouse-tracking paradigm","yes","Experiment-FT.osexp","C:\Users\Kristen\Documents\opPreviewExperiment-master\procedure","no","mono","no","24","no","black","no","yes","1050","legacy","6","15","C:/Users/Kristen/Documents/opPreviewExperiment-master/procedure/subject-22.csv","legacy","Kafkaesque Koffka","3.2.6","add","0","a","NA","NA","l","l","4389","NA","NA","20160","4389","2","1185","legacy","small","1024","2","48000","-16","experiment","5_3_add_FI.jpg","22","even","legacy","93447","NA","76799","NA","NA","2984","NA","2997","72410","93447","95630","23158","70290","2985","mousetracking operator preview effect","0","0","0","no","false","no","1680"
"neutral","undefined","1","undefined","undefined","white","no","legacy","legacy","legacy","0","relative","undefined","undefined","7","NA","0","0","0","0","0","0","0","23","23","0","15","0","no","04/29/19 11:58:28","A simple template for the mouse-tracking paradigm","yes","Experiment-FT.osexp","C:\Users\Kristen\Documents\opPreviewExperiment-master\procedure","no","mono","no","24","no","black","no","yes","1050","legacy","7","15","C:/Users/Kristen/Documents/opPreviewExperiment-master/procedure/subject-22.csv","legacy","Kafkaesque Koffka","3.2.6","mult","0","l","NA","NA","l","l","4389","NA","NA","20160","4389","2","1828","legacy","large","1024","2","48000","-16","experiment","9_7_mult_true.jpg","22","even","legacy","95644","NA","76799","NA","NA","2984","NA","2997","72410","95644","98462","23158","70290","2985","mousetracking operator preview effect","0","0","0","no","true","no","1680"
"negative","undefined","0","undefined","undefined","white","no","legacy","legacy","legacy","0","relative","undefined","undefined","8","NA","0","0","0","0","0","0","0","24","24","0","15","0","no","04/29/19 11:58:28","A simple template for the mouse-tracking paradigm","yes","Experiment-FT.osexp","C:\Users\Kristen\Documents\opPreviewExperiment-master\procedure","no","mono","no","24","no","black","no","yes","1050","legacy","8","15","C:/Users/Kristen/Documents/opPreviewExperiment-master/procedure/subject-22.csv","legacy","Kafkaesque Koffka","3.2.6","add","0","l","NA","NA","l","l","4389","NA","NA","20160","4389","2","1825","legacy","large","1024","2","48000","-16","experiment","6_8_add_FNI.jpg","22","even","legacy","98493","NA","76799","NA","NA","2984","NA","2997","72410","98493","102506","23158","70290","2985","mousetracking operator preview effect","0","0","0","no","false","no","1680"
"negative","undefined","1","undefined","undefined","white","no","legacy","legacy","legacy","0","relative","undefined","undefined","9","NA","0","0","0","0","0","0","0","25","25","0","15","0","no","04/29/19 11:58:28","A simple template for the mouse-tracking paradigm","yes","Experiment-FT.osexp","C:\Users\Kristen\Documents\opPreviewExperiment-master\procedure","no","mono","no","24","no","black","no","yes","1050","legacy","9","15","C:/Users/Kristen/Documents/opPreviewExperiment-master/procedure/subject-22.csv","legacy","Kafkaesque Koffka","3.2.6","add","0","l","NA","NA","l","l","4389","NA","NA","20160","4389","2","1559","legacy","large","1024","2","48000","-16","experiment","4_9_add_true.jpg","22","even","legacy","102544","NA","76799","NA","NA","2984","NA","2997","72410","102545","105254","23158","70290","2985","mousetracking operator preview effect","0","0","0","no","true","no","1680"
"negative","undefined","1","undefined","undefined","white","no","legacy","legacy","legacy","0","relative","undefined","undefined","10","NA","0","0","0","0","0","0","0","26","26","0","15","0","no","04/29/19 11:58:28","A simple template for the mouse-tracking paradigm","yes","Experiment-FT.osexp","C:\Users\Kristen\Documents\opPreviewExperiment-master\procedure","no","mono","no","24","no","black","no","yes","1050","legacy","10","15","C:/Users/Kristen/Documents/opPreviewExperiment-master/procedure/subject-22.csv","legacy","Kafkaesque Koffka","3.2.6","add","0","a","NA","NA","l","l","4389","NA","NA","20160","4389","2","1428","legacy","large","1024","2","48000","-16","experiment","4_9_add_FNI.jpg","22","even","legacy","105278","NA","76799","NA","NA","2984","NA","2997","72410","105278","107881","23158","70290","2985","mousetracking operator preview effect","0","0","0","no","false","no","1680"
"neutral","undefined","1","undefined","undefined","white","no","legacy","legacy","legacy","0","relative","undefined","undefined","11","NA","0","0","0","0","0","0","0","27","27","0","15","0","no","04/29/19 11:58:28","A simple template for the mouse-tracking paradigm","yes","Experiment-FT.osexp","C:\Users\Kristen\Documents\opPreviewExperiment-master\procedure","no","mono","no","24","no","black","no","yes","1050","legacy","11","15","C:/Users/Kristen/Documents/opPreviewExperiment-master/procedure/subject-22.csv","legacy","Kafkaesque Koffka","3.2.6","mult","0","a","NA","NA","l","l","4389","NA","NA","20160","4389","2","1412","legacy","small","1024","2","48000","-16","experiment","5_3_mult_FI.jpg","22","even","legacy","107911","NA","76799","NA","NA","2984","NA","2997","72410","107911","110317","23158","70290","2985","mousetracking operator preview effect","0","0","0","no","false","no","1680"
"negative","undefined","1","undefined","undefined","white","no","legacy","legacy","legacy","0","relative","undefined","undefined","12","NA","0","0","0","0","0","0","0","28","28","0","15","0","no","04/29/19 11:58:28","A simple template for the mouse-tracking paradigm","yes","Experiment-FT.osexp","C:\Users\Kristen\Documents\opPreviewExperiment-master\procedure","no","mono","no","24","no","black","no","yes","1050","legacy","12","15","C:/Users/Kristen/Documents/opPreviewExperiment-master/procedure/subject-22.csv","legacy","Kafkaesque Koffka","3.2.6","add","0","l","NA","NA","l","l","4389","NA","NA","20160","4389","2","895","legacy","small","1024","2","48000","-16","experiment","3_6_add_true.jpg","22","even","legacy","110337","NA","76799","NA","NA","2984","NA","2997","72410","110337","112363","23158","70290","2985","mousetracking operator preview effect","0","0","0","no","true","no","1680"
"neutral","undefined","1","undefined","undefined","white","no","legacy","legacy","legacy","0","relative","undefined","undefined","13","NA","0","0","0","0","0","0","0","29","29","0","15","0","no","04/29/19 11:58:28","A simple template for the mouse-tracking paradigm","yes","Experiment-FT.osexp","C:\Users\Kristen\Documents\opPreviewExperiment-master\procedure","no","mono","no","24","no","black","no","yes","1050","legacy","13","15","C:/Users/Kristen/Documents/opPreviewExperiment-master/procedure/subject-22.csv","legacy","Kafkaesque Koffka","3.2.6","add","0","l","NA","NA","l","l","4389","NA","NA","20160","4389","2","1164","legacy","small","1024","2","48000","-16","experiment","3_6_add_true.jpg","22","even","legacy","112383","NA","76799","NA","NA","2984","NA","2997","72410","112383","114526","23158","70290","2985","mousetracking operator preview effect","0","0","0","no","true","no","1680"
"negative","undefined","1","undefined","undefined","white","no","legacy","legacy","legacy","0","relative","undefined","undefined","14","NA","0","0","0","0","0","0","0","30","30","0","15","0","no","04/29/19 11:58:28","A simple template for the mouse-tracking paradigm","yes","Experiment-FT.osexp","C:\Users\Kristen\Documents\opPreviewExperiment-master\procedure","no","mono","no","24","no","black","no","yes","1050","legacy","14","15","C:/Users/Kristen/Documents/opPreviewExperiment-master/procedure/subject-22.csv","legacy","Kafkaesque Koffka","3.2.6","mult","0","a","NA","NA","l","l","4389","NA","NA","20160","4389","2","1249","legacy","large","1024","2","48000","-16","experiment","6_8_mult_FI.jpg","22","even","legacy","114539","NA","76799","NA","NA","2984","NA","2997","72410","114539","116966","23158","70290","2985","mousetracking operator preview effect","0","0","0","no","false","no","1680"
"neutral","undefined","0","undefined","undefined","white","no","legacy","legacy","legacy","0","relative","undefined","undefined","15","NA","0","0","0","0","0","0","0","31","31","0","15","0","no","04/29/19 11:58:28","A simple template for the mouse-tracking paradigm","yes","Experiment-FT.osexp","C:\Users\Kristen\Documents\opPreviewExperiment-master\procedure","no","mono","no","24","no","black","no","yes","1050","legacy","15","15","C:/Users/Kristen/Documents/opPreviewExperiment-master/procedure/subject-22.csv","legacy","Kafkaesque Koffka","3.2.6","add","0","l","NA","NA","l","l","4389","NA","NA","20160","4389","2","1406","legacy","large","1024","2","48000","-16","experiment","6_8_add_FNI.jpg","22","even","legacy","116991","NA","76799","NA","NA","2984","NA","2997","72410","116991","120392","23158","70290","2985","mousetracking operator preview effect","0","0","0","no","false","no","1680"
"negative","undefined","1","undefined","undefined","white","no","legacy","legacy","legacy","0","relative","undefined","undefined","16","NA","0","0","0","0","0","0","0","32","32","0","15","0","no","04/29/19 11:58:28","A simple template for the mouse-tracking paradigm","yes","Experiment-FT.osexp","C:\Users\Kristen\Documents\opPreviewExperiment-master\procedure","no","mono","no","24","no","black","no","yes","1050","legacy","16","15","C:/Users/Kristen/Documents/opPreviewExperiment-master/procedure/subject-22.csv","legacy","Kafkaesque Koffka","3.2.6","add","0","l","NA","NA","l","l","4389","NA","NA","20160","4389","2","1630","legacy","large","1024","2","48000","-16","experiment","9_7_add_true.jpg","22","even","legacy","120430","NA","76799","NA","NA","2984","NA","2997","72410","120430","123239","23158","70290","2985","mousetracking operator preview effect","0","0","0","no","true","no","1680"
"neutral","undefined","1","undefined","undefined","white","no","legacy","legacy","legacy","0","relative","undefined","undefined","17","NA","0","0","0","0","0","0","0","33","33","0","15","0","no","04/29/19 11:58:28","A simple template for the mouse-tracking paradigm","yes","Experiment-FT.osexp","C:\Users\Kristen\Documents\opPreviewExperiment-master\procedure","no","mono","no","24","no","black","no","yes","1050","legacy","17","15","C:/Users/Kristen/Documents/opPreviewExperiment-master/procedure/subject-22.csv","legacy","Kafkaesque Koffka","3.2.6","mult","0","l","NA","NA","l","l","4389","NA","NA","20160","4389","2","2360","legacy","large","1024","2","48000","-16","experiment","4_9_mult_true.jpg","22","even","legacy","123259","NA","76799","NA","NA","2984","NA","2997","72410","123259","126612","23158","70290","2985","mousetracking operator preview effect","0","0","0","no","true","no","1680"
"neutral","undefined","1","undefined","undefined","white","no","legacy","legacy","legacy","0","relative","undefined","undefined","18","NA","0","0","0","0","0","0","0","34","34","0","15","0","no","04/29/19 11:58:28","A simple template for the mouse-tracking paradigm","yes","Experiment-FT.osexp","C:\Users\Kristen\Documents\opPreviewExperiment-master\procedure","no","mono","no","24","no","black","no","yes","1050","legacy","18","15","C:/Users/Kristen/Documents/opPreviewExperiment-master/procedure/subject-22.csv","legacy","Kafkaesque Koffka","3.2.6","mult","0","a","NA","NA","l","l","4389","NA","NA","20160","4389","2","1068","legacy","small","1024","2","48000","-16","experiment","5_3_mult_FNI.jpg","22","even","legacy","126629","NA","76799","NA","NA","2984","NA","2997","72410","126629","128664","23158","70290","2985","mousetracking operator preview effect","0","0","0","no","false","no","1680"
"negative","undefined","1","undefined","undefined","white","no","legacy","legacy","legacy","0","relative","undefined","undefined","19","NA","0","0","0","0","0","0","0","35","35","0","15","0","no","04/29/19 11:58:28","A simple template for the mouse-tracking paradigm","yes","Experiment-FT.osexp","C:\Users\Kristen\Documents\opPreviewExperiment-master\procedure","no","mono","no","24","no","black","no","yes","1050","legacy","19","15","C:/Users/Kristen/Documents/opPreviewExperiment-master/procedure/subject-22.csv","legacy","Kafkaesque Koffka","3.2.6","mult","0","a","NA","NA","l","l","4389","NA","NA","20160","4389","2","1426","legacy","small","1024","2","48000","-16","experiment","3_6_mult_FI.jpg","22","even","legacy","128677","NA","76799","NA","NA","2984","NA","2997","72410","128677","131272","23158","70290","2985","mousetracking operator preview effect","0","0","0","no","false","no","1680"
"negative","undefined","1","undefined","undefined","white","no","legacy","legacy","legacy","0","relative","undefined","undefined","20","NA","0","0","0","0","0","0","0","36","36","0","15","0","no","04/29/19 11:58:28","A simple template for the mouse-tracking paradigm","yes","Experiment-FT.osexp","C:\Users\Kristen\Documents\opPreviewExperiment-master\procedure","no","mono","no","24","no","black","no","yes","1050","legacy","20","15","C:/Users/Kristen/Documents/opPreviewExperiment-master/procedure/subject-22.csv","legacy","Kafkaesque Koffka","3.2.6","mult","0","l","NA","NA","l","l","4389","NA","NA","20160","4389","2","2267","legacy","small","1024","2","48000","-16","experiment","3_6_mult_true.jpg","22","even","legacy","131295","NA","76799","NA","NA","2984","NA","2997","72410","131295","134727","23158","70290","2985","mousetracking operator preview effect","0","0","0","no","true","no","1680"
"negative","undefined","1","undefined","undefined","white","no","legacy","legacy","legacy","0","relative","undefined","undefined","21","NA","0","0","0","0","0","0","0","37","37","0","15","0","no","04/29/19 11:58:28","A simple template for the mouse-tracking paradigm","yes","Experiment-FT.osexp","C:\Users\Kristen\Documents\opPreviewExperiment-master\procedure","no","mono","no","24","no","black","no","yes","1050","legacy","21","15","C:/Users/Kristen/Documents/opPreviewExperiment-master/procedure/subject-22.csv","legacy","Kafkaesque Koffka","3.2.6","add","0","a","NA","NA","l","l","4389","NA","NA","20160","4389","2","1042","legacy","small","1024","2","48000","-16","experiment","2_7_add_FI.jpg","22","even","legacy","134748","NA","76799","NA","NA","2984","NA","2997","72410","134748","136968","23158","70290","2985","mousetracking operator preview effect","0","0","0","no","false","no","1680"
"neutral","undefined","1","undefined","undefined","white","no","legacy","legacy","legacy","0","relative","undefined","undefined","22","NA","0","0","0","0","0","0","0","38","38","0","15","0","no","04/29/19 11:58:28","A simple template for the mouse-tracking paradigm","yes","Experiment-FT.osexp","C:\Users\Kristen\Documents\opPreviewExperiment-master\procedure","no","mono","no","24","no","black","no","yes","1050","legacy","22","15","C:/Users/Kristen/Documents/opPreviewExperiment-master/procedure/subject-22.csv","legacy","Kafkaesque Koffka","3.2.6","mult","0","a","NA","NA","l","l","4389","NA","NA","20160","4389","2","1424","legacy","large","1024","2","48000","-16","experiment","4_9_mult_FNI.jpg","22","even","legacy","136989","NA","76799","NA","NA","2984","NA","2997","72410","136989","139405","23158","70290","2985","mousetracking operator preview effect","0","0","0","no","false","no","1680"
"neutral","undefined","1","undefined","undefined","white","no","legacy","legacy","legacy","0","relative","undefined","undefined","23","NA","0","0","0","0","0","0","0","39","39","0","15","0","no","04/29/19 11:58:28","A simple template for the mouse-tracking paradigm","yes","Experiment-FT.osexp","C:\Users\Kristen\Documents\opPreviewExperiment-master\procedure","no","mono","no","24","no","black","no","yes","1050","legacy","23","15","C:/Users/Kristen/Documents/opPreviewExperiment-master/procedure/subject-22.csv","legacy","Kafkaesque Koffka","3.2.6","mult","0","l","NA","NA","l","l","4389","NA","NA","20160","4389","2","1579","legacy","small","1024","2","48000","-16","experiment","3_6_mult_true.jpg","22","even","legacy","139432","NA","76799","NA","NA","2984","NA","2997","72410","139432","141993","23158","70290","2985","mousetracking operator preview effect","0","0","0","no","true","no","1680"
"negative","undefined","1","undefined","undefined","white","no","legacy","legacy","legacy","0","relative","undefined","undefined","24","NA","0","0","0","0","0","0","0","40","40","0","15","0","no","04/29/19 11:58:28","A simple template for the mouse-tracking paradigm","yes","Experiment-FT.osexp","C:\Users\Kristen\Documents\opPreviewExperiment-master\procedure","no","mono","no","24","no","black","no","yes","1050","legacy","24","15","C:/Users/Kristen/Documents/opPreviewExperiment-master/procedure/subject-22.csv","legacy","Kafkaesque Koffka","3.2.6","add","0","a","NA","NA","l","l","4389","NA","NA","20160","4389","2","1232","legacy","large","1024","2","48000","-16","experiment","9_7_add_FI.jpg","22","even","legacy","142018","NA","76799","NA","NA","2984","NA","2997","72410","142018","144421","23158","70290","2985","mousetracking operator preview effect","0","0","0","no","false","no","1680"
"negative","undefined","1","undefined","undefined","white","no","legacy","legacy","legacy","0","relative","undefined","undefined","25","NA","0","0","0","0","0","0","0","41","41","0","15","0","no","04/29/19 11:58:28","A simple template for the mouse-tracking paradigm","yes","Experiment-FT.osexp","C:\Users\Kristen\Documents\opPreviewExperiment-master\procedure","no","mono","no","24","no","black","no","yes","1050","legacy","25","15","C:/Users/Kristen/Documents/opPreviewExperiment-master/procedure/subject-22.csv","legacy","Kafkaesque Koffka","3.2.6","mult","0","l","NA","NA","l","l","4389","NA","NA","20160","4389","2","965","legacy","small","1024","2","48000","-16","experiment","8_2_mult_true.jpg","22","even","legacy","144452","NA","76799","NA","NA","2984","NA","2997","72410","144452","146597","23158","70290","2985","mousetracking operator preview effect","0","0","0","no","true","no","1680"
"neutral","undefined","1","undefined","undefined","white","no","legacy","legacy","legacy","0","relative","undefined","undefined","26","NA","0","0","0","0","0","0","0","42","42","0","15","0","no","04/29/19 11:58:28","A simple template for the mouse-tracking paradigm","yes","Experiment-FT.osexp","C:\Users\Kristen\Documents\opPreviewExperiment-master\procedure","no","mono","no","24","no","black","no","yes","1050","legacy","26","15","C:/Users/Kristen/Documents/opPreviewExperiment-master/procedure/subject-22.csv","legacy","Kafkaesque Koffka","3.2.6","mult","0","l","NA","NA","l","l","4389","NA","NA","20160","4389","2","1148","legacy","small","1024","2","48000","-16","experiment","2_7_mult_true.jpg","22","even","legacy","146617","NA","76799","NA","NA","2984","NA","2997","72410","146617","148765","23158","70290","2985","mousetracking operator preview effect","0","0","0","no","true","no","1680"
"neutral","undefined","1","undefined","undefined","white","no","legacy","legacy","legacy","0","relative","undefined","undefined","27","NA","0","0","0","0","0","0","0","43","43","0","15","0","no","04/29/19 11:58:28","A simple template for the mouse-tracking paradigm","yes","Experiment-FT.osexp","C:\Users\Kristen\Documents\opPreviewExperiment-master\procedure","no","mono","no","24","no","black","no","yes","1050","legacy","27","15","C:/Users/Kristen/Documents/opPreviewExperiment-master/procedure/subject-22.csv","legacy","Kafkaesque Koffka","3.2.6","mult","0","l","NA","NA","l","l","4389","NA","NA","20160","4389","2","867","legacy","small","1024","2","48000","-16","experiment","5_3_mult_true.jpg","22","even","legacy","148785","NA","76799","NA","NA","2984","NA","2997","72410","148785","150635","23158","70290","2985","mousetracking operator preview effect","0","0","0","no","true","no","1680"
"negative","undefined","0","undefined","undefined","white","no","legacy","legacy","legacy","0","relative","undefined","undefined","28","NA","0","0","0","0","0","0","0","44","44","0","15","0","no","04/29/19 11:58:28","A simple template for the mouse-tracking paradigm","yes","Experiment-FT.osexp","C:\Users\Kristen\Documents\opPreviewExperiment-master\procedure","no","mono","no","24","no","black","no","yes","1050","legacy","28","15","C:/Users/Kristen/Documents/opPreviewExperiment-master/procedure/subject-22.csv","legacy","Kafkaesque Koffka","3.2.6","mult","0","l","NA","NA","l","l","4389","NA","NA","20160","4389","2","2186","legacy","large","1024","2","48000","-16","experiment","9_7_mult_FNI.jpg","22","even","legacy","150656","NA","76799","NA","NA","2984","NA","2997","72410","150656","155027","23158","70290","2985","mousetracking operator preview effect","0","0","0","no","false","no","1680"
"neutral","undefined","1","undefined","undefined","white","no","legacy","legacy","legacy","0","relative","undefined","undefined","29","NA","0","0","0","0","0","0","0","45","45","0","15","0","no","04/29/19 11:58:28","A simple template for the mouse-tracking paradigm","yes","Experiment-FT.osexp","C:\Users\Kristen\Documents\opPreviewExperiment-master\procedure","no","mono","no","24","no","black","no","yes","1050","legacy","29","15","C:/Users/Kristen/Documents/opPreviewExperiment-master/procedure/subject-22.csv","legacy","Kafkaesque Koffka","3.2.6","mult","0","a","NA","NA","l","l","4389","NA","NA","20160","4389","2","1708","legacy","small","1024","2","48000","-16","experiment","2_7_mult_FNI.jpg","22","even","legacy","155052","NA","76799","NA","NA","2984","NA","2997","72410","155053","157740","23158","70290","2985","mousetracking operator preview effect","0","0","0","no","false","no","1680"
"neutral","undefined","0","undefined","undefined","white","no","legacy","legacy","legacy","0","relative","undefined","undefined","30","NA","0","0","0","0","0","0","0","46","46","0","15","0","no","04/29/19 11:58:28","A simple template for the mouse-tracking paradigm","yes","Experiment-FT.osexp","C:\Users\Kristen\Documents\opPreviewExperiment-master\procedure","no","mono","no","24","no","black","no","yes","1050","legacy","30","15","C:/Users/Kristen/Documents/opPreviewExperiment-master/procedure/subject-22.csv","legacy","Kafkaesque Koffka","3.2.6","mult","0","a","NA","NA","l","l","4389","NA","NA","20160","4389","2","1850","legacy","large","1024","2","48000","-16","experiment","6_8_mult_true.jpg","22","even","legacy","157758","NA","76799","NA","NA","2984","NA","2997","72410","157758","161619","23158","70290","2985","mousetracking operator preview effect","0","0","0","no","true","no","1680"
"negative","undefined","1","undefined","undefined","white","no","legacy","legacy","legacy","0","relative","undefined","undefined","31","NA","0","0","0","0","0","0","0","47","47","0","15","0","no","04/29/19 11:58:28","A simple template for the mouse-tracking paradigm","yes","Experiment-FT.osexp","C:\Users\Kristen\Documents\opPreviewExperiment-master\procedure","no","mono","no","24","no","black","no","yes","1050","legacy","31","15","C:/Users/Kristen/Documents/opPreviewExperiment-master/procedure/subject-22.csv","legacy","Kafkaesque Koffka","3.2.6","mult","0","a","NA","NA","l","l","4389","NA","NA","20160","4389","2","2343","legacy","small","1024","2","48000","-16","experiment","8_2_mult_FNI.jpg","22","even","legacy","161657","NA","76799","NA","NA","2984","NA","2997","72410","161658","165169","23158","70290","2985","mousetracking operator preview effect","0","0","0","no","false","no","1680"
"negative","undefined","1","undefined","undefined","white","no","legacy","legacy","legacy","0","relative","undefined","undefined","32","NA","0","0","0","0","0","0","0","48","48","0","15","0","no","04/29/19 11:58:28","A simple template for the mouse-tracking paradigm","yes","Experiment-FT.osexp","C:\Users\Kristen\Documents\opPreviewExperiment-master\procedure","no","mono","no","24","no","black","no","yes","1050","legacy","32","15","C:/Users/Kristen/Documents/opPreviewExperiment-master/procedure/subject-22.csv","legacy","Kafkaesque Koffka","3.2.6","mult","0","l","NA","NA","l","l","4389","NA","NA","20160","4389","2","1476","legacy","small","1024","2","48000","-16","experiment","2_7_mult_true.jpg","22","even","legacy","165183","NA","76799","NA","NA","2984","NA","2997","72410","165183","167808","23158","70290","2985","mousetracking operator preview effect","0","0","0","no","true","no","1680"
"negative","undefined","1","undefined","undefined","white","no","legacy","legacy","legacy","0","relative","undefined","undefined","33","NA","0","0","0","0","0","0","0","49","49","0","15","0","no","04/29/19 11:58:28","A simple template for the mouse-tracking paradigm","yes","Experiment-FT.osexp","C:\Users\Kristen\Documents\opPreviewExperiment-master\procedure","no","mono","no","24","no","black","no","yes","1050","legacy","33","15","C:/Users/Kristen/Documents/opPreviewExperiment-master/procedure/subject-22.csv","legacy","Kafkaesque Koffka","3.2.6","add","0","l","NA","NA","l","l","4389","NA","NA","20160","4389","2","988","legacy","small","1024","2","48000","-16","experiment","3_6_add_true.jpg","22","even","legacy","167832","NA","76799","NA","NA","2984","NA","2997","72410","167832","169963","23158","70290","2985","mousetracking operator preview effect","0","0","0","no","true","no","1680"
"negative","undefined","1","undefined","undefined","white","no","legacy","legacy","legacy","0","relative","undefined","undefined","34","NA","0","0","0","0","0","0","0","50","50","0","15","0","no","04/29/19 11:58:28","A simple template for the mouse-tracking paradigm","yes","Experiment-FT.osexp","C:\Users\Kristen\Documents\opPreviewExperiment-master\procedure","no","mono","no","24","no","black","no","yes","1050","legacy","34","15","C:/Users/Kristen/Documents/opPreviewExperiment-master/procedure/subject-22.csv","legacy","Kafkaesque Koffka","3.2.6","add","0","a","NA","NA","l","l","4389","NA","NA","20160","4389","2","1014","legacy","large","1024","2","48000","-16","experiment","6_8_add_FI.jpg","22","even","legacy","169989","NA","76799","NA","NA","2984","NA","2997","72410","169989","172146","23158","70290","2985","mousetracking operator preview effect","0","0","0","no","false","no","1680"
"neutral","undefined","0","undefined","undefined","white","no","legacy","legacy","legacy","0","relative","undefined","undefined","35","NA","0","0","0","0","0","0","0","51","51","0","15","0","no","04/29/19 11:58:28","A simple template for the mouse-tracking paradigm","yes","Experiment-FT.osexp","C:\Users\Kristen\Documents\opPreviewExperiment-master\procedure","no","mono","no","24","no","black","no","yes","1050","legacy","35","15","C:/Users/Kristen/Documents/opPreviewExperiment-master/procedure/subject-22.csv","legacy","Kafkaesque Koffka","3.2.6","add","0","l","NA","NA","l","l","4389","NA","NA","20160","4389","2","1952","legacy","large","1024","2","48000","-16","experiment","8_4_add_FNI.jpg","22","even","legacy","172168","NA","76799","NA","NA","2984","NA","2997","72410","172168","176133","23158","70290","2985","mousetracking operator preview effect","0","0","0","no","false","no","1680"
"neutral","undefined","1","undefined","undefined","white","no","legacy","legacy","legacy","0","relative","undefined","undefined","36","NA","0","0","0","0","0","0","0","52","52","0","15","0","no","04/29/19 11:58:28","A simple template for the mouse-tracking paradigm","yes","Experiment-FT.osexp","C:\Users\Kristen\Documents\opPreviewExperiment-master\procedure","no","mono","no","24","no","black","no","yes","1050","legacy","36","15","C:/Users/Kristen/Documents/opPreviewExperiment-master/procedure/subject-22.csv","legacy","Kafkaesque Koffka","3.2.6","add","0","l","NA","NA","l","l","4389","NA","NA","20160","4389","2","1210","legacy","small","1024","2","48000","-16","experiment","8_2_add_true.jpg","22","even","legacy","176170","NA","76799","NA","NA","2984","NA","2997","72410","176170","178377","23158","70290","2985","mousetracking operator preview effect","0","0","0","no","true","no","1680"
"negative","undefined","1","undefined","undefined","white","no","legacy","legacy","legacy","0","relative","undefined","undefined","37","NA","0","0","0","0","0","0","0","53","53","0","15","0","no","04/29/19 11:58:28","A simple template for the mouse-tracking paradigm","yes","Experiment-FT.osexp","C:\Users\Kristen\Documents\opPreviewExperiment-master\procedure","no","mono","no","24","no","black","no","yes","1050","legacy","37","15","C:/Users/Kristen/Documents/opPreviewExperiment-master/procedure/subject-22.csv","legacy","Kafkaesque Koffka","3.2.6","add","0","l","NA","NA","l","l","4389","NA","NA","20160","4389","2","1843","legacy","small","1024","2","48000","-16","experiment","5_3_add_true.jpg","22","even","legacy","178400","NA","76799","NA","NA","2984","NA","2997","72410","178400","181404","23158","70290","2985","mousetracking operator preview effect","0","0","0","no","true","no","1680"
"negative","undefined","1","undefined","undefined","white","no","legacy","legacy","legacy","0","relative","undefined","undefined","38","NA","0","0","0","0","0","0","0","54","54","0","15","0","no","04/29/19 11:58:28","A simple template for the mouse-tracking paradigm","yes","Experiment-FT.osexp","C:\Users\Kristen\Documents\opPreviewExperiment-master\procedure","no","mono","no","24","no","black","no","yes","1050","legacy","38","15","C:/Users/Kristen/Documents/opPreviewExperiment-master/procedure/subject-22.csv","legacy","Kafkaesque Koffka","3.2.6","add","0","a","NA","NA","l","l","4389","NA","NA","20160","4389","2","3501","legacy","large","1024","2","48000","-16","experiment","8_4_add_FNI.jpg","22","even","legacy","181424","NA","76799","NA","NA","2984","NA","2997","72410","181424","186069","23158","70290","2985","mousetracking operator preview effect","0","0","0","no","false","no","1680"
"negative","undefined","1","undefined","undefined","white","no","legacy","legacy","legacy","0","relative","undefined","undefined","39","NA","0","0","0","0","0","0","0","55","55","0","15","0","no","04/29/19 11:58:28","A simple template for the mouse-tracking paradigm","yes","Experiment-FT.osexp","C:\Users\Kristen\Documents\opPreviewExperiment-master\procedure","no","mono","no","24","no","black","no","yes","1050","legacy","39","15","C:/Users/Kristen/Documents/opPreviewExperiment-master/procedure/subject-22.csv","legacy","Kafkaesque Koffka","3.2.6","mult","0","a","NA","NA","l","l","4389","NA","NA","20160","4389","2","1760","legacy","large","1024","2","48000","-16","experiment","6_8_mult_FNI.jpg","22","even","legacy","186090","NA","76799","NA","NA","2984","NA","2997","72410","186090","189010","23158","70290","2985","mousetracking operator preview effect","0","0","0","no","false","no","1680"
"neutral","undefined","1","undefined","undefined","white","no","legacy","legacy","legacy","0","relative","undefined","undefined","40","NA","0","0","0","0","0","0","0","56","56","0","15","0","no","04/29/19 11:58:28","A simple template for the mouse-tracking paradigm","yes","Experiment-FT.osexp","C:\Users\Kristen\Documents\opPreviewExperiment-master\procedure","no","mono","no","24","no","black","no","yes","1050","legacy","40","15","C:/Users/Kristen/Documents/opPreviewExperiment-master/procedure/subject-22.csv","legacy","Kafkaesque Koffka","3.2.6","add","0","l","NA","NA","l","l","4389","NA","NA","20160","4389","2","1321","legacy","large","1024","2","48000","-16","experiment","9_7_add_true.jpg","22","even","legacy","189040","NA","76799","NA","NA","2984","NA","2997","72410","189040","191341","23158","70290","2985","mousetracking operator preview effect","0","0","0","no","true","no","1680"
"negative","undefined","1","undefined","undefined","white","no","legacy","legacy","legacy","0","relative","undefined","undefined","41","NA","0","0","0","0","0","0","0","57","57","0","15","0","no","04/29/19 11:58:28","A simple template for the mouse-tracking paradigm","yes","Experiment-FT.osexp","C:\Users\Kristen\Documents\opPreviewExperiment-master\procedure","no","mono","no","24","no","black","no","yes","1050","legacy","41","15","C:/Users/Kristen/Documents/opPreviewExperiment-master/procedure/subject-22.csv","legacy","Kafkaesque Koffka","3.2.6","add","0","l","NA","NA","l","l","4389","NA","NA","20160","4389","2","3585","legacy","large","1024","2","48000","-16","experiment","6_8_add_true.jpg","22","even","legacy","191362","NA","76799","NA","NA","2984","NA","2997","72410","191362","196079","23158","70290","2985","mousetracking operator preview effect","0","0","0","no","true","no","1680"
"negative","undefined","1","undefined","undefined","white","no","legacy","legacy","legacy","0","relative","undefined","undefined","42","NA","0","0","0","0","0","0","0","58","58","0","15","0","no","04/29/19 11:58:28","A simple template for the mouse-tracking paradigm","yes","Experiment-FT.osexp","C:\Users\Kristen\Documents\opPreviewExperiment-master\procedure","no","mono","no","24","no","black","no","yes","1050","legacy","42","15","C:/Users/Kristen/Documents/opPreviewExperiment-master/procedure/subject-22.csv","legacy","Kafkaesque Koffka","3.2.6","mult","0","a","NA","NA","l","l","4389","NA","NA","20160","4389","2","1059","legacy","small","1024","2","48000","-16","experiment","8_2_mult_FI.jpg","22","even","legacy","196101","NA","76799","NA","NA","2984","NA","2997","72410","196101","198292","23158","70290","2985","mousetracking operator preview effect","0","0","0","no","false","no","1680"
"neutral","undefined","0","undefined","undefined","white","no","legacy","legacy","legacy","0","relative","undefined","undefined","43","NA","0","0","0","0","0","0","0","59","59","0","15","0","no","04/29/19 11:58:28","A simple template for the mouse-tracking paradigm","yes","Experiment-FT.osexp","C:\Users\Kristen\Documents\opPreviewExperiment-master\procedure","no","mono","no","24","no","black","no","yes","1050","legacy","43","15","C:/Users/Kristen/Documents/opPreviewExperiment-master/procedure/subject-22.csv","legacy","Kafkaesque Koffka","3.2.6","add","0","a","NA","NA","l","l","4389","NA","NA","20160","4389","2","1131","legacy","small","1024","2","48000","-16","experiment","2_7_add_true.jpg","22","even","legacy","198313","NA","76799","NA","NA","2984","NA","2997","72410","198313","201460","23158","70290","2985","mousetracking operator preview effect","0","0","0","no","true","no","1680"
"negative","undefined","0","undefined","undefined","white","no","legacy","legacy","legacy","0","relative","undefined","undefined","44","NA","0","0","0","0","0","0","0","60","60","0","15","0","no","04/29/19 11:58:28","A simple template for the mouse-tracking paradigm","yes","Experiment-FT.osexp","C:\Users\Kristen\Documents\opPreviewExperiment-master\procedure","no","mono","no","24","no","black","no","yes","1050","legacy","44","15","C:/Users/Kristen/Documents/opPreviewExperiment-master/procedure/subject-22.csv","legacy","Kafkaesque Koffka","3.2.6","mult","0","a","NA","NA","l","l","4389","NA","NA","20160","4389","2","1373","legacy","large","1024","2","48000","-16","experiment","6_8_mult_true.jpg","22","even","legacy","201499","NA","76799","NA","NA","2984","NA","2997","72410","201499","205045","23158","70290","2985","mousetracking operator preview effect","0","0","0","no","true","no","1680"
"neutral","undefined","1","undefined","undefined","white","no","legacy","legacy","legacy","0","relative","undefined","undefined","45","NA","0","0","0","0","0","0","0","61","61","0","15","0","no","04/29/19 11:58:28","A simple template for the mouse-tracking paradigm","yes","Experiment-FT.osexp","C:\Users\Kristen\Documents\opPreviewExperiment-master\procedure","no","mono","no","24","no","black","no","yes","1050","legacy","45","15","C:/Users/Kristen/Documents/opPreviewExperiment-master/procedure/subject-22.csv","legacy","Kafkaesque Koffka","3.2.6","add","0","a","NA","NA","l","l","4389","NA","NA","20160","4389","2","2825","legacy","small","1024","2","48000","-16","experiment","3_6_add_FNI.jpg","22","even","legacy","205065","NA","76799","NA","NA","2984","NA","2997","72410","205066","208892","23158","70290","2985","mousetracking operator preview effect","0","0","0","no","false","no","1680"
"neutral","undefined","1","undefined","undefined","white","no","legacy","legacy","legacy","0","relative","undefined","undefined","46","NA","0","0","0","0","0","0","0","62","62","0","15","0","no","04/29/19 11:58:28","A simple template for the mouse-tracking paradigm","yes","Experiment-FT.osexp","C:\Users\Kristen\Documents\opPreviewExperiment-master\procedure","no","mono","no","24","no","black","no","yes","1050","legacy","46","15","C:/Users/Kristen/Documents/opPreviewExperiment-master/procedure/subject-22.csv","legacy","Kafkaesque Koffka","3.2.6","add","0","a","NA","NA","l","l","4389","NA","NA","20160","4389","2","1309","legacy","small","1024","2","48000","-16","experiment","3_6_add_FI.jpg","22","even","legacy","208922","NA","76799","NA","NA","2984","NA","2997","72410","208922","211213","23158","70290","2985","mousetracking operator preview effect","0","0","0","no","false","no","1680"
"negative","undefined","1","undefined","undefined","white","no","legacy","legacy","legacy","0","relative","undefined","undefined","47","NA","0","0","0","0","0","0","0","63","63","0","15","0","no","04/29/19 11:58:28","A simple template for the mouse-tracking paradigm","yes","Experiment-FT.osexp","C:\Users\Kristen\Documents\opPreviewExperiment-master\procedure","no","mono","no","24","no","black","no","yes","1050","legacy","47","15","C:/Users/Kristen/Documents/opPreviewExperiment-master/procedure/subject-22.csv","legacy","Kafkaesque Koffka","3.2.6","mult","0","l","NA","NA","l","l","4389","NA","NA","20160","4389","2","890","legacy","small","1024","2","48000","-16","experiment","8_2_mult_true.jpg","22","even","legacy","211242","NA","76799","NA","NA","2984","NA","2997","72410","211242","213285","23158","70290","2985","mousetracking operator preview effect","0","0","0","no","true","no","1680"
"neutral","undefined","1","undefined","undefined","white","no","legacy","legacy","legacy","0","relative","undefined","undefined","48","NA","0","0","0","0","0","0","0","64","64","0","15","0","no","04/29/19 11:58:28","A simple template for the mouse-tracking paradigm","yes","Experiment-FT.osexp","C:\Users\Kristen\Documents\opPreviewExperiment-master\procedure","no","mono","no","24","no","black","no","yes","1050","legacy","48","15","C:/Users/Kristen/Documents/opPreviewExperiment-master/procedure/subject-22.csv","legacy","Kafkaesque Koffka","3.2.6","add","0","a","NA","NA","l","l","4389","NA","NA","20160","4389","2","1316","legacy","large","1024","2","48000","-16","experiment","9_7_add_FI.jpg","22","even","legacy","213308","NA","76799","NA","NA","2984","NA","2997","72410","213308","215605","23158","70290","2985","mousetracking operator preview effect","0","0","0","no","false","no","1680"
"neutral","undefined","1","undefined","undefined","white","no","legacy","legacy","legacy","0","relative","undefined","undefined","49","NA","0","0","0","0","0","0","0","65","65","0","15","0","no","04/29/19 11:58:28","A simple template for the mouse-tracking paradigm","yes","Experiment-FT.osexp","C:\Users\Kristen\Documents\opPreviewExperiment-master\procedure","no","mono","no","24","no","black","no","yes","1050","legacy","49","15","C:/Users/Kristen/Documents/opPreviewExperiment-master/procedure/subject-22.csv","legacy","Kafkaesque Koffka","3.2.6","add","0","l","NA","NA","l","l","4389","NA","NA","20160","4389","2","1741","legacy","large","1024","2","48000","-16","experiment","6_8_add_true.jpg","22","even","legacy","215623","NA","76799","NA","NA","2984","NA","2997","72410","215623","218343","23158","70290","2985","mousetracking operator preview effect","0","0","0","no","true","no","1680"
"negative","undefined","1","undefined","undefined","white","no","legacy","legacy","legacy","0","relative","undefined","undefined","50","NA","0","0","0","0","0","0","0","66","66","0","15","0","no","04/29/19 11:58:28","A simple template for the mouse-tracking paradigm","yes","Experiment-FT.osexp","C:\Users\Kristen\Documents\opPreviewExperiment-master\procedure","no","mono","no","24","no","black","no","yes","1050","legacy","50","15","C:/Users/Kristen/Documents/opPreviewExperiment-master/procedure/subject-22.csv","legacy","Kafkaesque Koffka","3.2.6","mult","0","l","NA","NA","l","l","4389","NA","NA","20160","4389","2","1855","legacy","large","1024","2","48000","-16","experiment","4_9_mult_true.jpg","22","even","legacy","218356","NA","76799","NA","NA","2984","NA","2997","72410","218356","221346","23158","70290","2985","mousetracking operator preview effect","0","0","0","no","true","no","1680"
"negative","undefined","1","undefined","undefined","white","no","legacy","legacy","legacy","0","relative","undefined","undefined","51","NA","0","0","0","0","0","0","0","67","67","0","15","0","no","04/29/19 11:58:28","A simple template for the mouse-tracking paradigm","yes","Experiment-FT.osexp","C:\Users\Kristen\Documents\opPreviewExperiment-master\procedure","no","mono","no","24","no","black","no","yes","1050","legacy","51","15","C:/Users/Kristen/Documents/opPreviewExperiment-master/procedure/subject-22.csv","legacy","Kafkaesque Koffka","3.2.6","add","0","l","NA","NA","l","l","4389","NA","NA","20160","4389","2","3377","legacy","large","1024","2","48000","-16","experiment","9_7_add_true.jpg","22","even","legacy","221367","NA","76799","NA","NA","2984","NA","2997","72410","221367","225892","23158","70290","2985","mousetracking operator preview effect","0","0","0","no","true","no","1680"
"neutral","undefined","1","undefined","undefined","white","no","legacy","legacy","legacy","0","relative","undefined","undefined","52","NA","0","0","0","0","0","0","0","68","68","0","15","0","no","04/29/19 11:58:28","A simple template for the mouse-tracking paradigm","yes","Experiment-FT.osexp","C:\Users\Kristen\Documents\opPreviewExperiment-master\procedure","no","mono","no","24","no","black","no","yes","1050","legacy","52","15","C:/Users/Kristen/Documents/opPreviewExperiment-master/procedure/subject-22.csv","legacy","Kafkaesque Koffka","3.2.6","mult","0","l","NA","NA","l","l","4389","NA","NA","20160","4389","2","1398","legacy","large","1024","2","48000","-16","experiment","9_7_mult_true.jpg","22","even","legacy","225905","NA","76799","NA","NA","2984","NA","2997","72410","225906","228278","23158","70290","2985","mousetracking operator preview effect","0","0","0","no","true","no","1680"
"negative","undefined","1","undefined","undefined","white","no","legacy","legacy","legacy","0","relative","undefined","undefined","53","NA","0","0","0","0","0","0","0","69","69","0","15","0","no","04/29/19 11:58:28","A simple template for the mouse-tracking paradigm","yes","Experiment-FT.osexp","C:\Users\Kristen\Documents\opPreviewExperiment-master\procedure","no","mono","no","24","no","black","no","yes","1050","legacy","53","15","C:/Users/Kristen/Documents/opPreviewExperiment-master/procedure/subject-22.csv","legacy","Kafkaesque Koffka","3.2.6","add","0","l","NA","NA","l","l","4389","NA","NA","20160","4389","2","2678","legacy","small","1024","2","48000","-16","experiment","2_7_add_true.jpg","22","even","legacy","228307","NA","76799","NA","NA","2984","NA","2997","72410","228307","232133","23158","70290","2985","mousetracking operator preview effect","0","0","0","no","true","no","1680"
"neutral","undefined","1","undefined","undefined","white","no","legacy","legacy","legacy","0","relative","undefined","undefined","54","NA","0","0","0","0","0","0","0","70","70","0","15","0","no","04/29/19 11:58:28","A simple template for the mouse-tracking paradigm","yes","Experiment-FT.osexp","C:\Users\Kristen\Documents\opPreviewExperiment-master\procedure","no","mono","no","24","no","black","no","yes","1050","legacy","54","15","C:/Users/Kristen/Documents/opPreviewExperiment-master/procedure/subject-22.csv","legacy","Kafkaesque Koffka","3.2.6","mult","0","l","NA","NA","l","l","4389","NA","NA","20160","4389","2","922","legacy","small","1024","2","48000","-16","experiment","5_3_mult_true.jpg","22","even","legacy","232155","NA","76799","NA","NA","2984","NA","2997","72410","232155","234056","23158","70290","2985","mousetracking operator preview effect","0","0","0","no","true","no","1680"
"negative","undefined","1","undefined","undefined","white","no","legacy","legacy","legacy","0","relative","undefined","undefined","55","NA","0","0","0","0","0","0","0","71","71","0","15","0","no","04/29/19 11:58:28","A simple template for the mouse-tracking paradigm","yes","Experiment-FT.osexp","C:\Users\Kristen\Documents\opPreviewExperiment-master\procedure","no","mono","no","24","no","black","no","yes","1050","legacy","55","15","C:/Users/Kristen/Documents/opPreviewExperiment-master/procedure/subject-22.csv","legacy","Kafkaesque Koffka","3.2.6","mult","0","a","NA","NA","l","l","4389","NA","NA","20160","4389","2","2156","legacy","large","1024","2","48000","-16","experiment","9_7_mult_FI.jpg","22","even","legacy","234083","NA","76799","NA","NA","2984","NA","2997","72410","234083","237407","23158","70290","2985","mousetracking operator preview effect","0","0","0","no","false","no","1680"
"negative","undefined","1","undefined","undefined","white","no","legacy","legacy","legacy","0","relative","undefined","undefined","56","NA","0","0","0","0","0","0","0","72","72","0","15","0","no","04/29/19 11:58:28","A simple template for the mouse-tracking paradigm","yes","Experiment-FT.osexp","C:\Users\Kristen\Documents\opPreviewExperiment-master\procedure","no","mono","no","24","no","black","no","yes","1050","legacy","56","15","C:/Users/Kristen/Documents/opPreviewExperiment-master/procedure/subject-22.csv","legacy","Kafkaesque Koffka","3.2.6","mult","0","l","NA","NA","l","l","4389","NA","NA","20160","4389","2","1744","legacy","large","1024","2","48000","-16","experiment","8_4_mult_true.jpg","22","even","legacy","237431","NA","76799","NA","NA","2984","NA","2997","72410","237431","240348","23158","70290","2985","mousetracking operator preview effect","0","0","0","no","true","no","1680"
"neutral","undefined","1","undefined","undefined","white","no","legacy","legacy","legacy","0","relative","undefined","undefined","57","NA","0","0","0","0","0","0","0","73","73","0","15","0","no","04/29/19 11:58:28","A simple template for the mouse-tracking paradigm","yes","Experiment-FT.osexp","C:\Users\Kristen\Documents\opPreviewExperiment-master\procedure","no","mono","no","24","no","black","no","yes","1050","legacy","57","15","C:/Users/Kristen/Documents/opPreviewExperiment-master/procedure/subject-22.csv","legacy","Kafkaesque Koffka","3.2.6","add","0","a","NA","NA","l","l","4389","NA","NA","20160","4389","2","2321","legacy","large","1024","2","48000","-16","experiment","4_9_add_FNI.jpg","22","even","legacy","240369","NA","76799","NA","NA","2984","NA","2997","72410","240369","243663","23158","70290","2985","mousetracking operator preview effect","0","0","0","no","false","no","1680"
"neutral","undefined","1","undefined","undefined","white","no","legacy","legacy","legacy","0","relative","undefined","undefined","58","NA","0","0","0","0","0","0","0","74","74","0","15","0","no","04/29/19 11:58:28","A simple template for the mouse-tracking paradigm","yes","Experiment-FT.osexp","C:\Users\Kristen\Documents\opPreviewExperiment-master\procedure","no","mono","no","24","no","black","no","yes","1050","legacy","58","15","C:/Users/Kristen/Documents/opPreviewExperiment-master/procedure/subject-22.csv","legacy","Kafkaesque Koffka","3.2.6","add","0","l","NA","NA","l","l","4389","NA","NA","20160","4389","2","903","legacy","small","1024","2","48000","-16","experiment","5_3_add_true.jpg","22","even","legacy","243693","NA","76799","NA","NA","2984","NA","2997","72410","243693","245572","23158","70290","2985","mousetracking operator preview effect","0","0","0","no","true","no","1680"
"negative","undefined","1","undefined","undefined","white","no","legacy","legacy","legacy","0","relative","undefined","undefined","59","NA","0","0","0","0","0","0","0","75","75","0","15","0","no","04/29/19 11:58:28","A simple template for the mouse-tracking paradigm","yes","Experiment-FT.osexp","C:\Users\Kristen\Documents\opPreviewExperiment-master\procedure","no","mono","no","24","no","black","no","yes","1050","legacy","59","15","C:/Users/Kristen/Documents/opPreviewExperiment-master/procedure/subject-22.csv","legacy","Kafkaesque Koffka","3.2.6","add","0","a","NA","NA","l","l","4389","NA","NA","20160","4389","2","1191","legacy","small","1024","2","48000","-16","experiment","2_7_add_FNI.jpg","22","even","legacy","245585","NA","76799","NA","NA","2984","NA","2997","72410","245585","247952","23158","70290","2985","mousetracking operator preview effect","0","0","0","no","false","no","1680"
"neutral","undefined","1","undefined","undefined","white","no","legacy","legacy","legacy","0","relative","undefined","undefined","60","NA","0","0","0","0","0","0","0","76","76","0","15","0","no","04/29/19 11:58:28","A simple template for the mouse-tracking paradigm","yes","Experiment-FT.osexp","C:\Users\Kristen\Documents\opPreviewExperiment-master\procedure","no","mono","no","24","no","black","no","yes","1050","legacy","60","15","C:/Users/Kristen/Documents/opPreviewExperiment-master/procedure/subject-22.csv","legacy","Kafkaesque Koffka","3.2.6","mult","0","l","NA","NA","l","l","4389","NA","NA","20160","4389","2","961","legacy","small","1024","2","48000","-16","experiment","8_2_mult_true.jpg","22","even","legacy","247967","NA","76799","NA","NA","2984","NA","2997","72410","247967","249899","23158","70290","2985","mousetracking operator preview effect","0","0","0","no","true","no","1680"
"neutral","undefined","1","undefined","undefined","white","no","legacy","legacy","legacy","0","relative","undefined","undefined","61","NA","0","0","0","0","0","0","0","77","77","0","15","0","no","04/29/19 11:58:28","A simple template for the mouse-tracking paradigm","yes","Experiment-FT.osexp","C:\Users\Kristen\Documents\opPreviewExperiment-master\procedure","no","mono","no","24","no","black","no","yes","1050","legacy","61","15","C:/Users/Kristen/Documents/opPreviewExperiment-master/procedure/subject-22.csv","legacy","Kafkaesque Koffka","3.2.6","add","0","a","NA","NA","l","l","4389","NA","NA","20160","4389","2","805","legacy","small","1024","2","48000","-16","experiment","5_3_add_FNI.jpg","22","even","legacy","249927","NA","76799","NA","NA","2984","NA","2997","72410","249927","251703","23158","70290","2985","mousetracking operator preview effect","0","0","0","no","false","no","1680"
"neutral","undefined","1","undefined","undefined","white","no","legacy","legacy","legacy","0","relative","undefined","undefined","62","NA","0","0","0","0","0","0","0","78","78","0","15","0","no","04/29/19 11:58:28","A simple template for the mouse-tracking paradigm","yes","Experiment-FT.osexp","C:\Users\Kristen\Documents\opPreviewExperiment-master\procedure","no","mono","no","24","no","black","no","yes","1050","legacy","62","15","C:/Users/Kristen/Documents/opPreviewExperiment-master/procedure/subject-22.csv","legacy","Kafkaesque Koffka","3.2.6","add","0","a","NA","NA","l","l","4389","NA","NA","20160","4389","2","1777","legacy","large","1024","2","48000","-16","experiment","4_9_add_FI.jpg","22","even","legacy","251726","NA","76799","NA","NA","2984","NA","2997","72410","251727","254503","23158","70290","2985","mousetracking operator preview effect","0","0","0","no","false","no","1680"
"negative","undefined","1","undefined","undefined","white","no","legacy","legacy","legacy","0","relative","undefined","undefined","63","NA","0","0","0","0","0","0","0","79","79","0","15","0","no","04/29/19 11:58:28","A simple template for the mouse-tracking paradigm","yes","Experiment-FT.osexp","C:\Users\Kristen\Documents\opPreviewExperiment-master\procedure","no","mono","no","24","no","black","no","yes","1050","legacy","63","15","C:/Users/Kristen/Documents/opPreviewExperiment-master/procedure/subject-22.csv","legacy","Kafkaesque Koffka","3.2.6","mult","0","l","NA","NA","l","l","4389","NA","NA","20160","4389","2","1387","legacy","small","1024","2","48000","-16","experiment","3_6_mult_true.jpg","22","even","legacy","254525","NA","76799","NA","NA","2984","NA","2997","72410","254525","257071","23158","70290","2985","mousetracking operator preview effect","0","0","0","no","true","no","1680"
"neutral","undefined","1","undefined","undefined","white","no","legacy","legacy","legacy","0","relative","undefined","undefined","64","NA","0","0","0","0","0","0","0","80","80","0","15","0","no","04/29/19 11:58:28","A simple template for the mouse-tracking paradigm","yes","Experiment-FT.osexp","C:\Users\Kristen\Documents\opPreviewExperiment-master\procedure","no","mono","no","24","no","black","no","yes","1050","legacy","64","15","C:/Users/Kristen/Documents/opPreviewExperiment-master/procedure/subject-22.csv","legacy","Kafkaesque Koffka","3.2.6","mult","0","a","NA","NA","l","l","4389","NA","NA","20160","4389","2","2340","legacy","small","1024","2","48000","-16","experiment","3_6_mult_FNI.jpg","22","even","legacy","257100","NA","76799","NA","NA","2984","NA","2997","72410","257101","260424","23158","70290","2985","mousetracking operator preview effect","0","0","0","no","false","no","1680"
"negative","undefined","1","undefined","undefined","white","no","legacy","legacy","legacy","0","relative","undefined","undefined","65","NA","0","0","0","0","0","0","0","81","81","0","15","0","no","04/29/19 11:58:28","A simple template for the mouse-tracking paradigm","yes","Experiment-FT.osexp","C:\Users\Kristen\Documents\opPreviewExperiment-master\procedure","no","mono","no","24","no","black","no","yes","1050","legacy","65","15","C:/Users/Kristen/Documents/opPreviewExperiment-master/procedure/subject-22.csv","legacy","Kafkaesque Koffka","3.2.6","mult","0","a","NA","NA","l","l","4389","NA","NA","20160","4389","2","2098","legacy","large","1024","2","48000","-16","experiment","4_9_mult_FNI.jpg","22","even","legacy","260445","NA","76799","NA","NA","2984","NA","2997","72410","260445","263690","23158","70290","2985","mousetracking operator preview effect","0","0","0","no","false","no","1680"
"negative","undefined","1","undefined","undefined","white","no","legacy","legacy","legacy","0","relative","undefined","undefined","66","NA","0","0","0","0","0","0","0","82","82","0","15","0","no","04/29/19 11:58:28","A simple template for the mouse-tracking paradigm","yes","Experiment-FT.osexp","C:\Users\Kristen\Documents\opPreviewExperiment-master\procedure","no","mono","no","24","no","black","no","yes","1050","legacy","66","15","C:/Users/Kristen/Documents/opPreviewExperiment-master/procedure/subject-22.csv","legacy","Kafkaesque Koffka","3.2.6","add","0","a","NA","NA","l","l","4389","NA","NA","20160","4389","2","1426","legacy","large","1024","2","48000","-16","experiment","4_9_add_FI.jpg","22","even","legacy","263718","NA","76799","NA","NA","2984","NA","2997","72410","263718","266298","23158","70290","2985","mousetracking operator preview effect","0","0","0","no","false","no","1680"
"neutral","undefined","1","undefined","undefined","white","no","legacy","legacy","legacy","0","relative","undefined","undefined","67","NA","0","0","0","0","0","0","0","83","83","0","15","0","no","04/29/19 11:58:28","A simple template for the mouse-tracking paradigm","yes","Experiment-FT.osexp","C:\Users\Kristen\Documents\opPreviewExperiment-master\procedure","no","mono","no","24","no","black","no","yes","1050","legacy","67","15","C:/Users/Kristen/Documents/opPreviewExperiment-master/procedure/subject-22.csv","legacy","Kafkaesque Koffka","3.2.6","add","0","a","NA","NA","l","l","4389","NA","NA","20160","4389","2","1209","legacy","small","1024","2","48000","-16","experiment","2_7_add_FI.jpg","22","even","legacy","266328","NA","76799","NA","NA","2984","NA","2997","72410","266328","268516","23158","70290","2985","mousetracking operator preview effect","0","0","0","no","false","no","1680"
"neutral","undefined","1","undefined","undefined","white","no","legacy","legacy","legacy","0","relative","undefined","undefined","68","NA","0","0","0","0","0","0","0","84","84","0","15","0","no","04/29/19 11:58:28","A simple template for the mouse-tracking paradigm","yes","Experiment-FT.osexp","C:\Users\Kristen\Documents\opPreviewExperiment-master\procedure","no","mono","no","24","no","black","no","yes","1050","legacy","68","15","C:/Users/Kristen/Documents/opPreviewExperiment-master/procedure/subject-22.csv","legacy","Kafkaesque Koffka","3.2.6","add","0","a","NA","NA","l","l","4389","NA","NA","20160","4389","2","1898","legacy","large","1024","2","48000","-16","experiment","6_8_add_FI.jpg","22","even","legacy","268536","NA","76799","NA","NA","2984","NA","2997","72410","268536","271401","23158","70290","2985","mousetracking operator preview effect","0","0","0","no","false","no","1680"
"neutral","undefined","1","undefined","undefined","white","no","legacy","legacy","legacy","0","relative","undefined","undefined","69","NA","0","0","0","0","0","0","0","85","85","0","15","0","no","04/29/19 11:58:28","A simple template for the mouse-tracking paradigm","yes","Experiment-FT.osexp","C:\Users\Kristen\Documents\opPreviewExperiment-master\procedure","no","mono","no","24","no","black","no","yes","1050","legacy","69","15","C:/Users/Kristen/Documents/opPreviewExperiment-master/procedure/subject-22.csv","legacy","Kafkaesque Koffka","3.2.6","mult","0","a","NA","NA","l","l","4389","NA","NA","20160","4389","2","1663","legacy","large","1024","2","48000","-16","experiment","9_7_mult_FI.jpg","22","even","legacy","271417","NA","76799","NA","NA","2984","NA","2997","72410","271417","274046","23158","70290","2985","mousetracking operator preview effect","0","0","0","no","false","no","1680"
"negative","undefined","1","undefined","undefined","white","no","legacy","legacy","legacy","0","relative","undefined","undefined","70","NA","0","0","0","0","0","0","0","86","86","0","15","0","no","04/29/19 11:58:28","A simple template for the mouse-tracking paradigm","yes","Experiment-FT.osexp","C:\Users\Kristen\Documents\opPreviewExperiment-master\procedure","no","mono","no","24","no","black","no","yes","1050","legacy","70","15","C:/Users/Kristen/Documents/opPreviewExperiment-master/procedure/subject-22.csv","legacy","Kafkaesque Koffka","3.2.6","add","0","a","NA","NA","l","l","4389","NA","NA","20160","4389","2","956","legacy","large","1024","2","48000","-16","experiment","8_4_add_FI.jpg","22","even","legacy","274076","NA","76799","NA","NA","2984","NA","2997","72410","274076","276191","23158","70290","2985","mousetracking operator preview effect","0","0","0","no","false","no","1680"
"neutral","undefined","1","undefined","undefined","white","no","legacy","legacy","legacy","0","relative","undefined","undefined","71","NA","0","0","0","0","0","0","0","87","87","0","15","0","no","04/29/19 11:58:28","A simple template for the mouse-tracking paradigm","yes","Experiment-FT.osexp","C:\Users\Kristen\Documents\opPreviewExperiment-master\procedure","no","mono","no","24","no","black","no","yes","1050","legacy","71","15","C:/Users/Kristen/Documents/opPreviewExperiment-master/procedure/subject-22.csv","legacy","Kafkaesque Koffka","3.2.6","mult","0","a","NA","NA","l","l","4389","NA","NA","20160","4389","2","1948","legacy","large","1024","2","48000","-16","experiment","8_4_mult_FNI.jpg","22","even","legacy","276221","NA","76799","NA","NA","2984","NA","2997","72410","276221","279176","23158","70290","2985","mousetracking operator preview effect","0","0","0","no","false","no","1680"
"neutral","undefined","0","undefined","undefined","white","no","legacy","legacy","legacy","0","relative","undefined","undefined","72","NA","0","0","0","0","0","0","0","88","88","0","15","0","no","04/29/19 11:58:28","A simple template for the mouse-tracking paradigm","yes","Experiment-FT.osexp","C:\Users\Kristen\Documents\opPreviewExperiment-master\procedure","no","mono","no","24","no","black","no","yes","1050","legacy","72","15","C:/Users/Kristen/Documents/opPreviewExperiment-master/procedure/subject-22.csv","legacy","Kafkaesque Koffka","3.2.6","mult","0","l","NA","NA","l","l","4389","NA","NA","20160","4389","2","1859","legacy","large","1024","2","48000","-16","experiment","9_7_mult_FNI.jpg","22","even","legacy","279200","NA","76799","NA","NA","2984","NA","2997","72410","279200","283055","23158","70290","2985","mousetracking operator preview effect","0","0","0","no","false","no","1680"
"negative","undefined","1","undefined","undefined","white","no","legacy","legacy","legacy","0","relative","undefined","undefined","73","NA","0","0","0","0","0","0","0","89","89","0","15","0","no","04/29/19 11:58:28","A simple template for the mouse-tracking paradigm","yes","Experiment-FT.osexp","C:\Users\Kristen\Documents\opPreviewExperiment-master\procedure","no","mono","no","24","no","black","no","yes","1050","legacy","73","15","C:/Users/Kristen/Documents/opPreviewExperiment-master/procedure/subject-22.csv","legacy","Kafkaesque Koffka","3.2.6","add","0","a","NA","NA","l","l","4389","NA","NA","20160","4389","2","1086","legacy","small","1024","2","48000","-16","experiment","8_2_add_FI.jpg","22","even","legacy","283093","NA","76799","NA","NA","2984","NA","2997","72410","283094","285356","23158","70290","2985","mousetracking operator preview effect","0","0","0","no","false","no","1680"
"negative","undefined","0","undefined","undefined","white","no","legacy","legacy","legacy","0","relative","undefined","undefined","74","NA","0","0","0","0","0","0","0","90","90","0","15","0","no","04/29/19 11:58:28","A simple template for the mouse-tracking paradigm","yes","Experiment-FT.osexp","C:\Users\Kristen\Documents\opPreviewExperiment-master\procedure","no","mono","no","24","no","black","no","yes","1050","legacy","74","15","C:/Users/Kristen/Documents/opPreviewExperiment-master/procedure/subject-22.csv","legacy","Kafkaesque Koffka","3.2.6","add","0","a","NA","NA","l","l","4389","NA","NA","20160","4389","2","2275","legacy","large","1024","2","48000","-16","experiment","8_4_add_true.jpg","22","even","legacy","285369","NA","76799","NA","NA","2984","NA","2997","72410","285369","289818","23158","70290","2985","mousetracking operator preview effect","0","0","0","no","true","no","1680"
"neutral","undefined","1","undefined","undefined","white","no","legacy","legacy","legacy","0","relative","undefined","undefined","75","NA","0","0","0","0","0","0","0","91","91","0","15","0","no","04/29/19 11:58:28","A simple template for the mouse-tracking paradigm","yes","Experiment-FT.osexp","C:\Users\Kristen\Documents\opPreviewExperiment-master\procedure","no","mono","no","24","no","black","no","yes","1050","legacy","75","15","C:/Users/Kristen/Documents/opPreviewExperiment-master/procedure/subject-22.csv","legacy","Kafkaesque Koffka","3.2.6","add","0","l","NA","NA","l","l","4389","NA","NA","20160","4389","2","2475","legacy","small","1024","2","48000","-16","experiment","2_7_add_true.jpg","22","even","legacy","289852","NA","76799","NA","NA","2984","NA","2997","72410","289852","293298","23158","70290","2985","mousetracking operator preview effect","0","0","0","no","true","no","1680"
"neutral","undefined","1","undefined","undefined","white","no","legacy","legacy","legacy","0","relative","undefined","undefined","76","NA","0","0","0","0","0","0","0","92","92","0","15","0","no","04/29/19 11:58:28","A simple template for the mouse-tracking paradigm","yes","Experiment-FT.osexp","C:\Users\Kristen\Documents\opPreviewExperiment-master\procedure","no","mono","no","24","no","black","no","yes","1050","legacy","76","15","C:/Users/Kristen/Documents/opPreviewExperiment-master/procedure/subject-22.csv","legacy","Kafkaesque Koffka","3.2.6","mult","0","l","NA","NA","l","l","4389","NA","NA","20160","4389","2","3206","legacy","large","1024","2","48000","-16","experiment","4_9_mult_true.jpg","22","even","legacy","293321","NA","76799","NA","NA","2984","NA","2997","72410","293321","297499","23158","70290","2985","mousetracking operator preview effect","0","0","0","no","true","no","1680"
"neutral","undefined","1","undefined","undefined","white","no","legacy","legacy","legacy","0","relative","undefined","undefined","77","NA","0","0","0","0","0","0","0","93","93","0","15","0","no","04/29/19 11:58:28","A simple template for the mouse-tracking paradigm","yes","Experiment-FT.osexp","C:\Users\Kristen\Documents\opPreviewExperiment-master\procedure","no","mono","no","24","no","black","no","yes","1050","legacy","77","15","C:/Users/Kristen/Documents/opPreviewExperiment-master/procedure/subject-22.csv","legacy","Kafkaesque Koffka","3.2.6","mult","0","l","NA","NA","l","l","4389","NA","NA","20160","4389","2","1315","legacy","large","1024","2","48000","-16","experiment","6_8_mult_true.jpg","22","even","legacy","297522","NA","76799","NA","NA","2984","NA","2997","72410","297522","299802","23158","70290","2985","mousetracking operator preview effect","0","0","0","no","true","no","1680"
"negative","undefined","1","undefined","undefined","white","no","legacy","legacy","legacy","0","relative","undefined","undefined","78","NA","0","0","0","0","0","0","0","94","94","0","15","0","no","04/29/19 11:58:28","A simple template for the mouse-tracking paradigm","yes","Experiment-FT.osexp","C:\Users\Kristen\Documents\opPreviewExperiment-master\procedure","no","mono","no","24","no","black","no","yes","1050","legacy","78","15","C:/Users/Kristen/Documents/opPreviewExperiment-master/procedure/subject-22.csv","legacy","Kafkaesque Koffka","3.2.6","add","0","a","NA","NA","l","l","4389","NA","NA","20160","4389","2","1567","legacy","small","1024","2","48000","-16","experiment","5_3_add_FNI.jpg","22","even","legacy","299825","NA","76799","NA","NA","2984","NA","2997","72410","299825","302544","23158","70290","2985","mousetracking operator preview effect","0","0","0","no","false","no","1680"
"neutral","undefined","1","undefined","undefined","white","no","legacy","legacy","legacy","0","relative","undefined","undefined","79","NA","0","0","0","0","0","0","0","95","95","0","15","0","no","04/29/19 11:58:28","A simple template for the mouse-tracking paradigm","yes","Experiment-FT.osexp","C:\Users\Kristen\Documents\opPreviewExperiment-master\procedure","no","mono","no","24","no","black","no","yes","1050","legacy","79","15","C:/Users/Kristen/Documents/opPreviewExperiment-master/procedure/subject-22.csv","legacy","Kafkaesque Koffka","3.2.6","mult","0","l","NA","NA","l","l","4389","NA","NA","20160","4389","2","1681","legacy","large","1024","2","48000","-16","experiment","8_4_mult_true.jpg","22","even","legacy","302565","NA","76799","NA","NA","2984","NA","2997","72410","302565","305222","23158","70290","2985","mousetracking operator preview effect","0","0","0","no","true","no","1680"
"neutral","undefined","1","undefined","undefined","white","no","legacy","legacy","legacy","0","relative","undefined","undefined","80","NA","0","0","0","0","0","0","0","96","96","0","15","0","no","04/29/19 11:58:28","A simple template for the mouse-tracking paradigm","yes","Experiment-FT.osexp","C:\Users\Kristen\Documents\opPreviewExperiment-master\procedure","no","mono","no","24","no","black","no","yes","1050","legacy","80","15","C:/Users/Kristen/Documents/opPreviewExperiment-master/procedure/subject-22.csv","legacy","Kafkaesque Koffka","3.2.6","mult","0","a","NA","NA","l","l","4389","NA","NA","20160","4389","2","1737","legacy","large","1024","2","48000","-16","experiment","4_9_mult_FI.jpg","22","even","legacy","305248","NA","76799","NA","NA","2984","NA","2997","72410","305248","307985","23158","70290","2985","mousetracking operator preview effect","0","0","0","no","false","no","1680"
"negative","undefined","1","undefined","undefined","white","no","legacy","legacy","legacy","0","relative","undefined","undefined","81","NA","0","0","0","0","0","0","0","97","97","0","15","0","no","04/29/19 11:58:28","A simple template for the mouse-tracking paradigm","yes","Experiment-FT.osexp","C:\Users\Kristen\Documents\opPreviewExperiment-master\procedure","no","mono","no","24","no","black","no","yes","1050","legacy","81","15","C:/Users/Kristen/Documents/opPreviewExperiment-master/procedure/subject-22.csv","legacy","Kafkaesque Koffka","3.2.6","add","0","l","NA","NA","l","l","4389","NA","NA","20160","4389","2","1377","legacy","small","1024","2","48000","-16","experiment","5_3_add_true.jpg","22","even","legacy","308007","NA","76799","NA","NA","2984","NA","2997","72410","308007","310545","23158","70290","2985","mousetracking operator preview effect","0","0","0","no","true","no","1680"
"negative","undefined","1","undefined","undefined","white","no","legacy","legacy","legacy","0","relative","undefined","undefined","82","NA","0","0","0","0","0","0","0","98","98","0","15","0","no","04/29/19 11:58:28","A simple template for the mouse-tracking paradigm","yes","Experiment-FT.osexp","C:\Users\Kristen\Documents\opPreviewExperiment-master\procedure","no","mono","no","24","no","black","no","yes","1050","legacy","82","15","C:/Users/Kristen/Documents/opPreviewExperiment-master/procedure/subject-22.csv","legacy","Kafkaesque Koffka","3.2.6","mult","0","l","NA","NA","l","l","4389","NA","NA","20160","4389","2","1113","legacy","large","1024","2","48000","-16","experiment","4_9_mult_true.jpg","22","even","legacy","310570","NA","76799","NA","NA","2984","NA","2997","72410","310570","312826","23158","70290","2985","mousetracking operator preview effect","0","0","0","no","true","no","1680"
"negative","undefined","0","undefined","undefined","white","no","legacy","legacy","legacy","0","relative","undefined","undefined","83","NA","0","0","0","0","0","0","0","99","99","0","15","0","no","04/29/19 11:58:28","A simple template for the mouse-tracking paradigm","yes","Experiment-FT.osexp","C:\Users\Kristen\Documents\opPreviewExperiment-master\procedure","no","mono","no","24","no","black","no","yes","1050","legacy","83","15","C:/Users/Kristen/Documents/opPreviewExperiment-master/procedure/subject-22.csv","legacy","Kafkaesque Koffka","3.2.6","add","0","a","NA","NA","l","l","4389","NA","NA","20160","4389","2","1656","legacy","large","1024","2","48000","-16","experiment","6_8_add_true.jpg","22","even","legacy","312847","NA","76799","NA","NA","2984","NA","2997","72410","312847","316675","23158","70290","2985","mousetracking operator preview effect","0","0","0","no","true","no","1680"
"negative","undefined","1","undefined","undefined","white","no","legacy","legacy","legacy","0","relative","undefined","undefined","84","NA","0","0","0","0","0","0","0","100","100","0","15","0","no","04/29/19 11:58:28","A simple template for the mouse-tracking paradigm","yes","Experiment-FT.osexp","C:\Users\Kristen\Documents\opPreviewExperiment-master\procedure","no","mono","no","24","no","black","no","yes","1050","legacy","84","15","C:/Users/Kristen/Documents/opPreviewExperiment-master/procedure/subject-22.csv","legacy","Kafkaesque Koffka","3.2.6","mult","0","l","NA","NA","l","l","4389","NA","NA","20160","4389","2","1243","legacy","large","1024","2","48000","-16","experiment","9_7_mult_true.jpg","22","even","legacy","316714","NA","76799","NA","NA","2984","NA","2997","72410","316715","319109","23158","70290","2985","mousetracking operator preview effect","0","0","0","no","true","no","1680"
"neutral","undefined","1","undefined","undefined","white","no","legacy","legacy","legacy","0","relative","undefined","undefined","85","NA","0","0","0","0","0","0","0","101","101","0","15","0","no","04/29/19 11:58:28","A simple template for the mouse-tracking paradigm","yes","Experiment-FT.osexp","C:\Users\Kristen\Documents\opPreviewExperiment-master\procedure","no","mono","no","24","no","black","no","yes","1050","legacy","85","15","C:/Users/Kristen/Documents/opPreviewExperiment-master/procedure/subject-22.csv","legacy","Kafkaesque Koffka","3.2.6","add","0","l","NA","NA","l","l","4389","NA","NA","20160","4389","2","1280","legacy","small","1024","2","48000","-16","experiment","5_3_add_true.jpg","22","even","legacy","319138","NA","76799","NA","NA","2984","NA","2997","72410","319138","321400","23158","70290","2985","mousetracking operator preview effect","0","0","0","no","true","no","1680"
"negative","undefined","1","undefined","undefined","white","no","legacy","legacy","legacy","0","relative","undefined","undefined","86","NA","0","0","0","0","0","0","0","102","102","0","15","0","no","04/29/19 11:58:28","A simple template for the mouse-tracking paradigm","yes","Experiment-FT.osexp","C:\Users\Kristen\Documents\opPreviewExperiment-master\procedure","no","mono","no","24","no","black","no","yes","1050","legacy","86","15","C:/Users/Kristen/Documents/opPreviewExperiment-master/procedure/subject-22.csv","legacy","Kafkaesque Koffka","3.2.6","mult","0","a","NA","NA","l","l","4389","NA","NA","20160","4389","2","1118","legacy","small","1024","2","48000","-16","experiment","3_6_mult_FNI.jpg","22","even","legacy","321424","NA","76799","NA","NA","2984","NA","2997","72410","321424","323695","23158","70290","2985","mousetracking operator preview effect","0","0","0","no","false","no","1680"
"negative","undefined","1","undefined","undefined","white","no","legacy","legacy","legacy","0","relative","undefined","undefined","87","NA","0","0","0","0","0","0","0","103","103","0","15","0","no","04/29/19 11:58:28","A simple template for the mouse-tracking paradigm","yes","Experiment-FT.osexp","C:\Users\Kristen\Documents\opPreviewExperiment-master\procedure","no","mono","no","24","no","black","no","yes","1050","legacy","87","15","C:/Users/Kristen/Documents/opPreviewExperiment-master/procedure/subject-22.csv","legacy","Kafkaesque Koffka","3.2.6","mult","0","l","NA","NA","l","l","4389","NA","NA","20160","4389","2","965","legacy","small","1024","2","48000","-16","experiment","5_3_mult_true.jpg","22","even","legacy","323716","NA","76799","NA","NA","2984","NA","2997","72410","323716","325837","23158","70290","2985","mousetracking operator preview effect","0","0","0","no","true","no","1680"
"negative","undefined","0","undefined","undefined","white","no","legacy","legacy","legacy","0","relative","undefined","undefined","88","NA","0","0","0","0","0","0","0","104","104","0","15","0","no","04/29/19 11:58:28","A simple template for the mouse-tracking paradigm","yes","Experiment-FT.osexp","C:\Users\Kristen\Documents\opPreviewExperiment-master\procedure","no","mono","no","24","no","black","no","yes","1050","legacy","88","15","C:/Users/Kristen/Documents/opPreviewExperiment-master/procedure/subject-22.csv","legacy","Kafkaesque Koffka","3.2.6","mult","0","l","NA","NA","l","l","4389","NA","NA","20160","4389","2","2232","legacy","large","1024","2","48000","-16","experiment","4_9_mult_FI.jpg","22","even","legacy","325868","NA","76799","NA","NA","2984","NA","2997","72410","325868","330267","23158","70290","2985","mousetracking operator preview effect","0","0","0","no","false","no","1680"
"neutral","undefined","0","undefined","undefined","white","no","legacy","legacy","legacy","0","relative","undefined","undefined","89","NA","0","0","0","0","0","0","0","105","105","0","15","0","no","04/29/19 11:58:28","A simple template for the mouse-tracking paradigm","yes","Experiment-FT.osexp","C:\Users\Kristen\Documents\opPreviewExperiment-master\procedure","no","mono","no","24","no","black","no","yes","1050","legacy","89","15","C:/Users/Kristen/Documents/opPreviewExperiment-master/procedure/subject-22.csv","legacy","Kafkaesque Koffka","3.2.6","add","0","a","NA","NA","l","l","4389","NA","NA","20160","4389","2","3399","legacy","large","1024","2","48000","-16","experiment","8_4_add_true.jpg","22","even","legacy","330309","NA","76799","NA","NA","2984","NA","2997","72410","330309","335689","23158","70290","2985","mousetracking operator preview effect","0","0","0","no","true","no","1680"
"neutral","undefined","1","undefined","undefined","white","no","legacy","legacy","legacy","0","relative","undefined","undefined","90","NA","0","0","0","0","0","0","0","106","106","0","15","0","no","04/29/19 11:58:28","A simple template for the mouse-tracking paradigm","yes","Experiment-FT.osexp","C:\Users\Kristen\Documents\opPreviewExperiment-master\procedure","no","mono","no","24","no","black","no","yes","1050","legacy","90","15","C:/Users/Kristen/Documents/opPreviewExperiment-master/procedure/subject-22.csv","legacy","Kafkaesque Koffka","3.2.6","mult","0","l","NA","NA","l","l","4389","NA","NA","20160","4389","2","893","legacy","small","1024","2","48000","-16","experiment","3_6_mult_true.jpg","22","even","legacy","335708","NA","76799","NA","NA","2984","NA","2997","72410","335709","337577","23158","70290","2985","mousetracking operator preview effect","0","0","0","no","true","no","1680"
"neutral","undefined","1","undefined","undefined","white","no","legacy","legacy","legacy","0","relative","undefined","undefined","91","NA","0","0","0","0","0","0","0","107","107","0","15","0","no","04/29/19 11:58:28","A simple template for the mouse-tracking paradigm","yes","Experiment-FT.osexp","C:\Users\Kristen\Documents\opPreviewExperiment-master\procedure","no","mono","no","24","no","black","no","yes","1050","legacy","91","15","C:/Users/Kristen/Documents/opPreviewExperiment-master/procedure/subject-22.csv","legacy","Kafkaesque Koffka","3.2.6","add","0","a","NA","NA","l","l","4389","NA","NA","20160","4389","2","1466","legacy","small","1024","2","48000","-16","experiment","2_7_add_FNI.jpg","22","even","legacy","337602","NA","76799","NA","NA","2984","NA","2997","72410","337602","340045","23158","70290","2985","mousetracking operator preview effect","0","0","0","no","false","no","1680"
"negative","undefined","1","undefined","undefined","white","no","legacy","legacy","legacy","0","relative","undefined","undefined","92","NA","0","0","0","0","0","0","0","108","108","0","15","0","no","04/29/19 11:58:28","A simple template for the mouse-tracking paradigm","yes","Experiment-FT.osexp","C:\Users\Kristen\Documents\opPreviewExperiment-master\procedure","no","mono","no","24","no","black","no","yes","1050","legacy","92","15","C:/Users/Kristen/Documents/opPreviewExperiment-master/procedure/subject-22.csv","legacy","Kafkaesque Koffka","3.2.6","add","0","a","NA","NA","l","l","4389","NA","NA","20160","4389","2","714","legacy","small","1024","2","48000","-16","experiment","8_2_add_FNI.jpg","22","even","legacy","340066","NA","76799","NA","NA","2984","NA","2997","72410","340066","341929","23158","70290","2985","mousetracking operator preview effect","0","0","0","no","false","no","1680"
