"SOAcondition","acc","accuracy","average_response_time","avg_rt","background","bidi","canvas_backend","clock_backend","color_backend","compensation","coordinates","correct","correct_instruction1","count_block1_sequence","count_block2_sequence","count_block_1","count_block_2","count_breakScreen","count_experiment","count_finish","count_instruction1","count_instruction2","count_keyboard_script","count_logger","count_practiceBlock","count_practice_sequence","count_setup_script","custom_cursor","datetime","description","disable_garbage_collection","experiment_file","experiment_path","font_bold","font_family","font_italic","font_size","font_underline","foreground","form_clicks","fullscreen","height","keyboard_backend","live_row","live_row_practiceBlock","logfile","mouse_backend","opensesame_codename","opensesame_version","operation","repeat_cycle","response","response_breakScreen","response_finish","response_instruction1","response_instruction2","response_time","response_time_breakScreen","response_time_finish","response_time_instruction1","response_time_instruction2","round_decimals","rt","sampler_backend","size","sound_buf_size","sound_channels","sound_freq","sound_sample_size","start","stimulus","subject_nr","subject_parity","synth_backend","time_block1_sequence","time_block2_sequence","time_block_1","time_block_2","time_breakScreen","time_experiment","time_finish","time_instruction1","time_instruction2","time_keyboard_script","time_logger","time_practiceBlock","time_practice_sequence","time_setup_script","title","total_correct","total_response_time","total_responses","transparent_variables","truth","uniform_coordinates","width"
"negative","undefined","1","undefined","undefined","white","no","legacy","legacy","legacy","0","relative","undefined","undefined","NA","NA","0","0","0","0","0","0","0","0","0","0","0","0","no","04/29/19 12:27:34","A simple template for the mouse-tracking paradigm","yes","Experiment-FT.osexp","C:\Users\Kristen\Documents\opPreviewExperiment-master\procedure","no","mono","no","24","no","black","no","yes","1050","legacy","0","0","C:/Users/Kristen/Documents/opPreviewExperiment-master/procedure/subject-24.csv","legacy","Kafkaesque Koffka","3.2.6","mult","0","a","NA","NA","l","NA","14943","NA","NA","14943","NA","2","7540","legacy","NA","1024","2","48000","-16","experiment","0_3_mult_F.jpg","24","even","legacy","NA","NA","NA","NA","NA","1932","NA","1947","NA","16894","25592","16891","16894","1934","mousetracking operator preview effect","0","0","0","no","false","no","1680"
"negative","undefined","1","undefined","undefined","white","no","legacy","legacy","legacy","0","relative","undefined","undefined","NA","NA","0","0","0","0","0","0","0","1","1","0","1","0","no","04/29/19 12:27:34","A simple template for the mouse-tracking paradigm","yes","Experiment-FT.osexp","C:\Users\Kristen\Documents\opPreviewExperiment-master\procedure","no","mono","no","24","no","black","no","yes","1050","legacy","1","1","C:/Users/Kristen/Documents/opPreviewExperiment-master/procedure/subject-24.csv","legacy","Kafkaesque Koffka","3.2.6","mult","0","a","NA","NA","l","NA","14943","NA","NA","14943","NA","2","5291","legacy","NA","1024","2","48000","-16","experiment","1_4_mult_F.jpg","24","even","legacy","NA","NA","NA","NA","NA","1932","NA","1947","NA","25613","32044","16891","25613","1934","mousetracking operator preview effect","0","0","0","no","false","no","1680"
"neutral","undefined","1","undefined","undefined","white","no","legacy","legacy","legacy","0","relative","undefined","undefined","NA","NA","0","0","0","0","0","0","0","2","2","0","2","0","no","04/29/19 12:27:34","A simple template for the mouse-tracking paradigm","yes","Experiment-FT.osexp","C:\Users\Kristen\Documents\opPreviewExperiment-master\procedure","no","mono","no","24","no","black","no","yes","1050","legacy","2","2","C:/Users/Kristen/Documents/opPreviewExperiment-master/procedure/subject-24.csv","legacy","Kafkaesque Koffka","3.2.6","mult","0","a","NA","NA","l","NA","14943","NA","NA","14943","NA","2","2388","legacy","NA","1024","2","48000","-16","experiment","1_4_mult_F.jpg","24","even","legacy","NA","NA","NA","NA","NA","1932","NA","1947","NA","32068","35436","16891","32068","1934","mousetracking operator preview effect","0","0","0","no","false","no","1680"
"neutral","undefined","1","undefined","undefined","white","no","legacy","legacy","legacy","0","relative","undefined","undefined","NA","NA","0","0","0","0","0","0","0","3","3","0","3","0","no","04/29/19 12:27:34","A simple template for the mouse-tracking paradigm","yes","Experiment-FT.osexp","C:\Users\Kristen\Documents\opPreviewExperiment-master\procedure","no","mono","no","24","no","black","no","yes","1050","legacy","3","3","C:/Users/Kristen/Documents/opPreviewExperiment-master/procedure/subject-24.csv","legacy","Kafkaesque Koffka","3.2.6","add","0","a","NA","NA","l","NA","14943","NA","NA","14943","NA","2","2553","legacy","NA","1024","2","48000","-16","experiment","0_3_add_F.jpg","24","even","legacy","NA","NA","NA","NA","NA","1932","NA","1947","NA","35466","38993","16891","35466","1934","mousetracking operator preview effect","0","0","0","no","false","no","1680"
"neutral","undefined","1","undefined","undefined","white","no","legacy","legacy","legacy","0","relative","undefined","undefined","NA","NA","0","0","0","0","0","0","0","4","4","0","4","0","no","04/29/19 12:27:34","A simple template for the mouse-tracking paradigm","yes","Experiment-FT.osexp","C:\Users\Kristen\Documents\opPreviewExperiment-master\procedure","no","mono","no","24","no","black","no","yes","1050","legacy","4","4","C:/Users/Kristen/Documents/opPreviewExperiment-master/procedure/subject-24.csv","legacy","Kafkaesque Koffka","3.2.6","add","0","a","NA","NA","l","NA","14943","NA","NA","14943","NA","2","3016","legacy","NA","1024","2","48000","-16","experiment","1_4_add_F.jpg","24","even","legacy","NA","NA","NA","NA","NA","1932","NA","1947","NA","39022","43016","16891","39022","1934","mousetracking operator preview effect","0","0","0","no","false","no","1680"
"negative","undefined","1","undefined","undefined","white","no","legacy","legacy","legacy","0","relative","undefined","undefined","NA","NA","0","0","0","0","0","0","0","5","5","0","5","0","no","04/29/19 12:27:34","A simple template for the mouse-tracking paradigm","yes","Experiment-FT.osexp","C:\Users\Kristen\Documents\opPreviewExperiment-master\procedure","no","mono","no","24","no","black","no","yes","1050","legacy","5","5","C:/Users/Kristen/Documents/opPreviewExperiment-master/procedure/subject-24.csv","legacy","Kafkaesque Koffka","3.2.6","mult","0","l","NA","NA","l","NA","14943","NA","NA","14943","NA","2","1826","legacy","NA","1024","2","48000","-16","experiment","1_4_mult_T.jpg","24","even","legacy","NA","NA","NA","NA","NA","1932","NA","1947","NA","43031","45990","16891","43031","1934","mousetracking operator preview effect","0","0","0","no","true","no","1680"
"negative","undefined","1","undefined","undefined","white","no","legacy","legacy","legacy","0","relative","undefined","undefined","NA","NA","0","0","0","0","0","0","0","6","6","0","6","0","no","04/29/19 12:27:34","A simple template for the mouse-tracking paradigm","yes","Experiment-FT.osexp","C:\Users\Kristen\Documents\opPreviewExperiment-master\procedure","no","mono","no","24","no","black","no","yes","1050","legacy","6","6","C:/Users/Kristen/Documents/opPreviewExperiment-master/procedure/subject-24.csv","legacy","Kafkaesque Koffka","3.2.6","add","0","l","NA","NA","l","NA","14943","NA","NA","14943","NA","2","1398","legacy","NA","1024","2","48000","-16","experiment","1_4_add_T.jpg","24","even","legacy","NA","NA","NA","NA","NA","1932","NA","1947","NA","46011","48539","16891","46011","1934","mousetracking operator preview effect","0","0","0","no","true","no","1680"
"negative","undefined","1","undefined","undefined","white","no","legacy","legacy","legacy","0","relative","undefined","undefined","NA","NA","0","0","0","0","0","0","0","7","7","0","7","0","no","04/29/19 12:27:34","A simple template for the mouse-tracking paradigm","yes","Experiment-FT.osexp","C:\Users\Kristen\Documents\opPreviewExperiment-master\procedure","no","mono","no","24","no","black","no","yes","1050","legacy","7","7","C:/Users/Kristen/Documents/opPreviewExperiment-master/procedure/subject-24.csv","legacy","Kafkaesque Koffka","3.2.6","mult","0","l","NA","NA","l","NA","14943","NA","NA","14943","NA","2","923","legacy","NA","1024","2","48000","-16","experiment","0_3_mult_T.jpg","24","even","legacy","NA","NA","NA","NA","NA","1932","NA","1947","NA","48570","50651","16891","48570","1934","mousetracking operator preview effect","0","0","0","no","true","no","1680"
"negative","undefined","1","undefined","undefined","white","no","legacy","legacy","legacy","0","relative","undefined","undefined","NA","NA","0","0","0","0","0","0","0","8","8","0","8","0","no","04/29/19 12:27:34","A simple template for the mouse-tracking paradigm","yes","Experiment-FT.osexp","C:\Users\Kristen\Documents\opPreviewExperiment-master\procedure","no","mono","no","24","no","black","no","yes","1050","legacy","8","8","C:/Users/Kristen/Documents/opPreviewExperiment-master/procedure/subject-24.csv","legacy","Kafkaesque Koffka","3.2.6","add","0","l","NA","NA","l","NA","14943","NA","NA","14943","NA","2","729","legacy","NA","1024","2","48000","-16","experiment","0_3_add_T.jpg","24","even","legacy","NA","NA","NA","NA","NA","1932","NA","1947","NA","50672","52554","16891","50672","1934","mousetracking operator preview effect","0","0","0","no","true","no","1680"
"neutral","undefined","1","undefined","undefined","white","no","legacy","legacy","legacy","0","relative","undefined","undefined","NA","NA","0","0","0","0","0","0","0","9","9","0","9","0","no","04/29/19 12:27:34","A simple template for the mouse-tracking paradigm","yes","Experiment-FT.osexp","C:\Users\Kristen\Documents\opPreviewExperiment-master\procedure","no","mono","no","24","no","black","no","yes","1050","legacy","9","9","C:/Users/Kristen/Documents/opPreviewExperiment-master/procedure/subject-24.csv","legacy","Kafkaesque Koffka","3.2.6","add","0","l","NA","NA","l","NA","14943","NA","NA","14943","NA","2","1364","legacy","NA","1024","2","48000","-16","experiment","1_4_add_T.jpg","24","even","legacy","NA","NA","NA","NA","NA","1932","NA","1947","NA","52581","54926","16891","52581","1934","mousetracking operator preview effect","0","0","0","no","true","no","1680"
"neutral","undefined","1","undefined","undefined","white","no","legacy","legacy","legacy","0","relative","undefined","undefined","NA","NA","0","0","0","0","0","0","0","10","10","0","10","0","no","04/29/19 12:27:34","A simple template for the mouse-tracking paradigm","yes","Experiment-FT.osexp","C:\Users\Kristen\Documents\opPreviewExperiment-master\procedure","no","mono","no","24","no","black","no","yes","1050","legacy","10","10","C:/Users/Kristen/Documents/opPreviewExperiment-master/procedure/subject-24.csv","legacy","Kafkaesque Koffka","3.2.6","mult","0","a","NA","NA","l","NA","14943","NA","NA","14943","NA","2","1205","legacy","NA","1024","2","48000","-16","experiment","0_3_mult_F.jpg","24","even","legacy","NA","NA","NA","NA","NA","1932","NA","1947","NA","54943","57131","16891","54943","1934","mousetracking operator preview effect","0","0","0","no","false","no","1680"
"neutral","undefined","1","undefined","undefined","white","no","legacy","legacy","legacy","0","relative","undefined","undefined","NA","NA","0","0","0","0","0","0","0","11","11","0","11","0","no","04/29/19 12:27:34","A simple template for the mouse-tracking paradigm","yes","Experiment-FT.osexp","C:\Users\Kristen\Documents\opPreviewExperiment-master\procedure","no","mono","no","24","no","black","no","yes","1050","legacy","11","11","C:/Users/Kristen/Documents/opPreviewExperiment-master/procedure/subject-24.csv","legacy","Kafkaesque Koffka","3.2.6","mult","0","l","NA","NA","l","NA","14943","NA","NA","14943","NA","2","1188","legacy","NA","1024","2","48000","-16","experiment","1_4_mult_T.jpg","24","even","legacy","NA","NA","NA","NA","NA","1932","NA","1947","NA","57152","59316","16891","57152","1934","mousetracking operator preview effect","0","0","0","no","true","no","1680"
"negative","undefined","0","undefined","undefined","white","no","legacy","legacy","legacy","0","relative","undefined","undefined","NA","NA","0","0","0","0","0","0","0","12","12","0","12","0","no","04/29/19 12:27:34","A simple template for the mouse-tracking paradigm","yes","Experiment-FT.osexp","C:\Users\Kristen\Documents\opPreviewExperiment-master\procedure","no","mono","no","24","no","black","no","yes","1050","legacy","12","12","C:/Users/Kristen/Documents/opPreviewExperiment-master/procedure/subject-24.csv","legacy","Kafkaesque Koffka","3.2.6","add","0","l","NA","NA","l","NA","14943","NA","NA","14943","NA","2","2050","legacy","NA","1024","2","48000","-16","experiment","0_3_add_F.jpg","24","even","legacy","NA","NA","NA","NA","NA","1932","NA","1947","NA","59337","63558","16891","59337","1934","mousetracking operator preview effect","0","0","0","no","false","no","1680"
"neutral","undefined","1","undefined","undefined","white","no","legacy","legacy","legacy","0","relative","undefined","undefined","NA","NA","0","0","0","0","0","0","0","13","13","0","13","0","no","04/29/19 12:27:34","A simple template for the mouse-tracking paradigm","yes","Experiment-FT.osexp","C:\Users\Kristen\Documents\opPreviewExperiment-master\procedure","no","mono","no","24","no","black","no","yes","1050","legacy","13","13","C:/Users/Kristen/Documents/opPreviewExperiment-master/procedure/subject-24.csv","legacy","Kafkaesque Koffka","3.2.6","mult","0","l","NA","NA","l","NA","14943","NA","NA","14943","NA","2","22185","legacy","NA","1024","2","48000","-16","experiment","0_3_mult_T.jpg","24","even","legacy","NA","NA","NA","NA","NA","1932","NA","1947","NA","63597","86754","16891","63596","1934","mousetracking operator preview effect","0","0","0","no","true","no","1680"
"negative","undefined","1","undefined","undefined","white","no","legacy","legacy","legacy","0","relative","undefined","undefined","NA","NA","0","0","0","0","0","0","0","14","14","0","14","0","no","04/29/19 12:27:34","A simple template for the mouse-tracking paradigm","yes","Experiment-FT.osexp","C:\Users\Kristen\Documents\opPreviewExperiment-master\procedure","no","mono","no","24","no","black","no","yes","1050","legacy","14","14","C:/Users/Kristen/Documents/opPreviewExperiment-master/procedure/subject-24.csv","legacy","Kafkaesque Koffka","3.2.6","add","0","a","NA","NA","l","NA","14943","NA","NA","14943","NA","2","2217","legacy","NA","1024","2","48000","-16","experiment","1_4_add_F.jpg","24","even","legacy","NA","NA","NA","NA","NA","1932","NA","1947","NA","86775","90136","16891","86775","1934","mousetracking operator preview effect","0","0","0","no","false","no","1680"
"neutral","undefined","1","undefined","undefined","white","no","legacy","legacy","legacy","0","relative","undefined","undefined","NA","NA","0","0","0","0","0","0","0","15","15","0","15","0","no","04/29/19 12:27:34","A simple template for the mouse-tracking paradigm","yes","Experiment-FT.osexp","C:\Users\Kristen\Documents\opPreviewExperiment-master\procedure","no","mono","no","24","no","black","no","yes","1050","legacy","15","15","C:/Users/Kristen/Documents/opPreviewExperiment-master/procedure/subject-24.csv","legacy","Kafkaesque Koffka","3.2.6","add","0","l","NA","NA","l","NA","14943","NA","NA","14943","NA","2","2331","legacy","NA","1024","2","48000","-16","experiment","0_3_add_T.jpg","24","even","legacy","NA","NA","NA","NA","NA","1932","NA","1947","NA","90157","93461","16891","90157","1934","mousetracking operator preview effect","0","0","0","no","true","no","1680"
"neutral","undefined","1","undefined","undefined","white","no","legacy","legacy","legacy","0","relative","undefined","undefined","0","NA","0","0","0","0","0","0","0","16","16","0","15","0","no","04/29/19 12:27:34","A simple template for the mouse-tracking paradigm","yes","Experiment-FT.osexp","C:\Users\Kristen\Documents\opPreviewExperiment-master\procedure","no","mono","no","24","no","black","no","yes","1050","legacy","0","15","C:/Users/Kristen/Documents/opPreviewExperiment-master/procedure/subject-24.csv","legacy","Kafkaesque Koffka","3.2.6","mult","0","a","NA","NA","l","l","38952","NA","NA","14943","38952","2","6209","legacy","large","1024","2","48000","-16","experiment","9_7_mult_FNI.jpg","24","even","legacy","132445","NA","132441","NA","NA","1932","NA","1947","93488","132445","139630","16891","90157","1934","mousetracking operator preview effect","0","0","0","no","false","no","1680"
"neutral","undefined","1","undefined","undefined","white","no","legacy","legacy","legacy","0","relative","undefined","undefined","1","NA","0","0","0","0","0","0","0","17","17","0","15","0","no","04/29/19 12:27:34","A simple template for the mouse-tracking paradigm","yes","Experiment-FT.osexp","C:\Users\Kristen\Documents\opPreviewExperiment-master\procedure","no","mono","no","24","no","black","no","yes","1050","legacy","1","15","C:/Users/Kristen/Documents/opPreviewExperiment-master/procedure/subject-24.csv","legacy","Kafkaesque Koffka","3.2.6","mult","0","l","NA","NA","l","l","38952","NA","NA","14943","38952","2","6285","legacy","large","1024","2","48000","-16","experiment","6_8_mult_true.jpg","24","even","legacy","139661","NA","132441","NA","NA","1932","NA","1947","93488","139661","146914","16891","90157","1934","mousetracking operator preview effect","0","0","0","no","true","no","1680"
"neutral","undefined","1","undefined","undefined","white","no","legacy","legacy","legacy","0","relative","undefined","undefined","2","NA","0","0","0","0","0","0","0","18","18","0","15","0","no","04/29/19 12:27:34","A simple template for the mouse-tracking paradigm","yes","Experiment-FT.osexp","C:\Users\Kristen\Documents\opPreviewExperiment-master\procedure","no","mono","no","24","no","black","no","yes","1050","legacy","2","15","C:/Users/Kristen/Documents/opPreviewExperiment-master/procedure/subject-24.csv","legacy","Kafkaesque Koffka","3.2.6","add","0","a","NA","NA","l","l","38952","NA","NA","14943","38952","2","2842","legacy","small","1024","2","48000","-16","experiment","2_7_add_FI.jpg","24","even","legacy","146939","NA","132441","NA","NA","1932","NA","1947","93488","146939","150752","16891","90157","1934","mousetracking operator preview effect","0","0","0","no","false","no","1680"
"negative","undefined","1","undefined","undefined","white","no","legacy","legacy","legacy","0","relative","undefined","undefined","3","NA","0","0","0","0","0","0","0","19","19","0","15","0","no","04/29/19 12:27:34","A simple template for the mouse-tracking paradigm","yes","Experiment-FT.osexp","C:\Users\Kristen\Documents\opPreviewExperiment-master\procedure","no","mono","no","24","no","black","no","yes","1050","legacy","3","15","C:/Users/Kristen/Documents/opPreviewExperiment-master/procedure/subject-24.csv","legacy","Kafkaesque Koffka","3.2.6","add","0","a","NA","NA","l","l","38952","NA","NA","14943","38952","2","3161","legacy","large","1024","2","48000","-16","experiment","4_9_add_FI.jpg","24","even","legacy","150771","NA","132441","NA","NA","1932","NA","1947","93488","150771","155082","16891","90157","1934","mousetracking operator preview effect","0","0","0","no","false","no","1680"
"negative","undefined","1","undefined","undefined","white","no","legacy","legacy","legacy","0","relative","undefined","undefined","4","NA","0","0","0","0","0","0","0","20","20","0","15","0","no","04/29/19 12:27:34","A simple template for the mouse-tracking paradigm","yes","Experiment-FT.osexp","C:\Users\Kristen\Documents\opPreviewExperiment-master\procedure","no","mono","no","24","no","black","no","yes","1050","legacy","4","15","C:/Users/Kristen/Documents/opPreviewExperiment-master/procedure/subject-24.csv","legacy","Kafkaesque Koffka","3.2.6","mult","0","a","NA","NA","l","l","38952","NA","NA","14943","38952","2","2160","legacy","small","1024","2","48000","-16","experiment","8_2_mult_FNI.jpg","24","even","legacy","155096","NA","132441","NA","NA","1932","NA","1947","93488","155096","158401","16891","90157","1934","mousetracking operator preview effect","0","0","0","no","false","no","1680"
"neutral","undefined","1","undefined","undefined","white","no","legacy","legacy","legacy","0","relative","undefined","undefined","5","NA","0","0","0","0","0","0","0","21","21","0","15","0","no","04/29/19 12:27:34","A simple template for the mouse-tracking paradigm","yes","Experiment-FT.osexp","C:\Users\Kristen\Documents\opPreviewExperiment-master\procedure","no","mono","no","24","no","black","no","yes","1050","legacy","5","15","C:/Users/Kristen/Documents/opPreviewExperiment-master/procedure/subject-24.csv","legacy","Kafkaesque Koffka","3.2.6","add","0","a","NA","NA","l","l","38952","NA","NA","14943","38952","2","4783","legacy","large","1024","2","48000","-16","experiment","8_4_add_FNI.jpg","24","even","legacy","158415","NA","132441","NA","NA","1932","NA","1947","93488","158415","164172","16891","90157","1934","mousetracking operator preview effect","0","0","0","no","false","no","1680"
"negative","undefined","1","undefined","undefined","white","no","legacy","legacy","legacy","0","relative","undefined","undefined","6","NA","0","0","0","0","0","0","0","22","22","0","15","0","no","04/29/19 12:27:34","A simple template for the mouse-tracking paradigm","yes","Experiment-FT.osexp","C:\Users\Kristen\Documents\opPreviewExperiment-master\procedure","no","mono","no","24","no","black","no","yes","1050","legacy","6","15","C:/Users/Kristen/Documents/opPreviewExperiment-master/procedure/subject-24.csv","legacy","Kafkaesque Koffka","3.2.6","add","0","a","NA","NA","l","l","38952","NA","NA","14943","38952","2","4862","legacy","large","1024","2","48000","-16","experiment","6_8_add_FNI.jpg","24","even","legacy","164202","NA","132441","NA","NA","1932","NA","1947","93488","164202","170206","16891","90157","1934","mousetracking operator preview effect","0","0","0","no","false","no","1680"
"negative","undefined","0","undefined","undefined","white","no","legacy","legacy","legacy","0","relative","undefined","undefined","7","NA","0","0","0","0","0","0","0","23","23","0","15","0","no","04/29/19 12:27:34","A simple template for the mouse-tracking paradigm","yes","Experiment-FT.osexp","C:\Users\Kristen\Documents\opPreviewExperiment-master\procedure","no","mono","no","24","no","black","no","yes","1050","legacy","7","15","C:/Users/Kristen/Documents/opPreviewExperiment-master/procedure/subject-24.csv","legacy","Kafkaesque Koffka","3.2.6","mult","0","l","NA","NA","l","l","38952","NA","NA","14943","38952","2","2181","legacy","small","1024","2","48000","-16","experiment","3_6_mult_FI.jpg","24","even","legacy","170228","NA","132441","NA","NA","1932","NA","1947","93488","170228","174574","16891","90157","1934","mousetracking operator preview effect","0","0","0","no","false","no","1680"
"neutral","undefined","1","undefined","undefined","white","no","legacy","legacy","legacy","0","relative","undefined","undefined","8","NA","0","0","0","0","0","0","0","24","24","0","15","0","no","04/29/19 12:27:34","A simple template for the mouse-tracking paradigm","yes","Experiment-FT.osexp","C:\Users\Kristen\Documents\opPreviewExperiment-master\procedure","no","mono","no","24","no","black","no","yes","1050","legacy","8","15","C:/Users/Kristen/Documents/opPreviewExperiment-master/procedure/subject-24.csv","legacy","Kafkaesque Koffka","3.2.6","mult","0","a","NA","NA","l","l","38952","NA","NA","14943","38952","2","4375","legacy","large","1024","2","48000","-16","experiment","4_9_mult_FNI.jpg","24","even","legacy","174618","NA","132441","NA","NA","1932","NA","1947","93488","174619","179981","16891","90157","1934","mousetracking operator preview effect","0","0","0","no","false","no","1680"
"negative","undefined","1","undefined","undefined","white","no","legacy","legacy","legacy","0","relative","undefined","undefined","9","NA","0","0","0","0","0","0","0","25","25","0","15","0","no","04/29/19 12:27:34","A simple template for the mouse-tracking paradigm","yes","Experiment-FT.osexp","C:\Users\Kristen\Documents\opPreviewExperiment-master\procedure","no","mono","no","24","no","black","no","yes","1050","legacy","9","15","C:/Users/Kristen/Documents/opPreviewExperiment-master/procedure/subject-24.csv","legacy","Kafkaesque Koffka","3.2.6","add","0","a","NA","NA","l","l","38952","NA","NA","14943","38952","2","2261","legacy","large","1024","2","48000","-16","experiment","9_7_add_FI.jpg","24","even","legacy","180002","NA","132441","NA","NA","1932","NA","1947","93488","180002","183407","16891","90157","1934","mousetracking operator preview effect","0","0","0","no","false","no","1680"
"neutral","undefined","0","undefined","undefined","white","no","legacy","legacy","legacy","0","relative","undefined","undefined","10","NA","0","0","0","0","0","0","0","26","26","0","15","0","no","04/29/19 12:27:34","A simple template for the mouse-tracking paradigm","yes","Experiment-FT.osexp","C:\Users\Kristen\Documents\opPreviewExperiment-master\procedure","no","mono","no","24","no","black","no","yes","1050","legacy","10","15","C:/Users/Kristen/Documents/opPreviewExperiment-master/procedure/subject-24.csv","legacy","Kafkaesque Koffka","3.2.6","mult","0","l","NA","NA","l","l","38952","NA","NA","14943","38952","2","2482","legacy","small","1024","2","48000","-16","experiment","3_6_mult_FNI.jpg","24","even","legacy","183432","NA","132441","NA","NA","1932","NA","1947","93488","183432","187883","16891","90157","1934","mousetracking operator preview effect","0","0","0","no","false","no","1680"
"negative","undefined","1","undefined","undefined","white","no","legacy","legacy","legacy","0","relative","undefined","undefined","11","NA","0","0","0","0","0","0","0","27","27","0","15","0","no","04/29/19 12:27:34","A simple template for the mouse-tracking paradigm","yes","Experiment-FT.osexp","C:\Users\Kristen\Documents\opPreviewExperiment-master\procedure","no","mono","no","24","no","black","no","yes","1050","legacy","11","15","C:/Users/Kristen/Documents/opPreviewExperiment-master/procedure/subject-24.csv","legacy","Kafkaesque Koffka","3.2.6","mult","0","l","NA","NA","l","l","38952","NA","NA","14943","38952","2","3257","legacy","large","1024","2","48000","-16","experiment","4_9_mult_true.jpg","24","even","legacy","187908","NA","132441","NA","NA","1932","NA","1947","93488","187908","192320","16891","90157","1934","mousetracking operator preview effect","0","0","0","no","true","no","1680"
"negative","undefined","1","undefined","undefined","white","no","legacy","legacy","legacy","0","relative","undefined","undefined","12","NA","0","0","0","0","0","0","0","28","28","0","15","0","no","04/29/19 12:27:34","A simple template for the mouse-tracking paradigm","yes","Experiment-FT.osexp","C:\Users\Kristen\Documents\opPreviewExperiment-master\procedure","no","mono","no","24","no","black","no","yes","1050","legacy","12","15","C:/Users/Kristen/Documents/opPreviewExperiment-master/procedure/subject-24.csv","legacy","Kafkaesque Koffka","3.2.6","add","0","a","NA","NA","l","l","38952","NA","NA","14943","38952","2","2180","legacy","small","1024","2","48000","-16","experiment","2_7_add_FI.jpg","24","even","legacy","192344","NA","132441","NA","NA","1932","NA","1947","93488","192344","195659","16891","90157","1934","mousetracking operator preview effect","0","0","0","no","false","no","1680"
"neutral","undefined","1","undefined","undefined","white","no","legacy","legacy","legacy","0","relative","undefined","undefined","13","NA","0","0","0","0","0","0","0","29","29","0","15","0","no","04/29/19 12:27:34","A simple template for the mouse-tracking paradigm","yes","Experiment-FT.osexp","C:\Users\Kristen\Documents\opPreviewExperiment-master\procedure","no","mono","no","24","no","black","no","yes","1050","legacy","13","15","C:/Users/Kristen/Documents/opPreviewExperiment-master/procedure/subject-24.csv","legacy","Kafkaesque Koffka","3.2.6","mult","0","a","NA","NA","l","l","38952","NA","NA","14943","38952","2","2316","legacy","small","1024","2","48000","-16","experiment","5_3_mult_FI.jpg","24","even","legacy","195679","NA","132441","NA","NA","1932","NA","1947","93488","195679","198953","16891","90157","1934","mousetracking operator preview effect","0","0","0","no","false","no","1680"
"neutral","undefined","1","undefined","undefined","white","no","legacy","legacy","legacy","0","relative","undefined","undefined","14","NA","0","0","0","0","0","0","0","30","30","0","15","0","no","04/29/19 12:27:34","A simple template for the mouse-tracking paradigm","yes","Experiment-FT.osexp","C:\Users\Kristen\Documents\opPreviewExperiment-master\procedure","no","mono","no","24","no","black","no","yes","1050","legacy","14","15","C:/Users/Kristen/Documents/opPreviewExperiment-master/procedure/subject-24.csv","legacy","Kafkaesque Koffka","3.2.6","mult","0","a","NA","NA","l","l","38952","NA","NA","14943","38952","2","2416","legacy","large","1024","2","48000","-16","experiment","6_8_mult_FI.jpg","24","even","legacy","198980","NA","132441","NA","NA","1932","NA","1947","93488","198980","202373","16891","90157","1934","mousetracking operator preview effect","0","0","0","no","false","no","1680"
"negative","undefined","1","undefined","undefined","white","no","legacy","legacy","legacy","0","relative","undefined","undefined","15","NA","0","0","0","0","0","0","0","31","31","0","15","0","no","04/29/19 12:27:34","A simple template for the mouse-tracking paradigm","yes","Experiment-FT.osexp","C:\Users\Kristen\Documents\opPreviewExperiment-master\procedure","no","mono","no","24","no","black","no","yes","1050","legacy","15","15","C:/Users/Kristen/Documents/opPreviewExperiment-master/procedure/subject-24.csv","legacy","Kafkaesque Koffka","3.2.6","add","0","l","NA","NA","l","l","38952","NA","NA","14943","38952","2","1901","legacy","small","1024","2","48000","-16","experiment","2_7_add_true.jpg","24","even","legacy","202402","NA","132441","NA","NA","1932","NA","1947","93488","202402","205450","16891","90157","1934","mousetracking operator preview effect","0","0","0","no","true","no","1680"
"neutral","undefined","1","undefined","undefined","white","no","legacy","legacy","legacy","0","relative","undefined","undefined","16","NA","0","0","0","0","0","0","0","32","32","0","15","0","no","04/29/19 12:27:34","A simple template for the mouse-tracking paradigm","yes","Experiment-FT.osexp","C:\Users\Kristen\Documents\opPreviewExperiment-master\procedure","no","mono","no","24","no","black","no","yes","1050","legacy","16","15","C:/Users/Kristen/Documents/opPreviewExperiment-master/procedure/subject-24.csv","legacy","Kafkaesque Koffka","3.2.6","mult","0","a","NA","NA","l","l","38952","NA","NA","14943","38952","2","2740","legacy","large","1024","2","48000","-16","experiment","6_8_mult_FNI.jpg","24","even","legacy","205471","NA","132441","NA","NA","1932","NA","1947","93488","205471","209186","16891","90157","1934","mousetracking operator preview effect","0","0","0","no","false","no","1680"
"neutral","undefined","1","undefined","undefined","white","no","legacy","legacy","legacy","0","relative","undefined","undefined","17","NA","0","0","0","0","0","0","0","33","33","0","15","0","no","04/29/19 12:27:34","A simple template for the mouse-tracking paradigm","yes","Experiment-FT.osexp","C:\Users\Kristen\Documents\opPreviewExperiment-master\procedure","no","mono","no","24","no","black","no","yes","1050","legacy","17","15","C:/Users/Kristen/Documents/opPreviewExperiment-master/procedure/subject-24.csv","legacy","Kafkaesque Koffka","3.2.6","mult","0","a","NA","NA","l","l","38952","NA","NA","14943","38952","2","2171","legacy","small","1024","2","48000","-16","experiment","5_3_mult_FNI.jpg","24","even","legacy","209217","NA","132441","NA","NA","1932","NA","1947","93488","209217","212371","16891","90157","1934","mousetracking operator preview effect","0","0","0","no","false","no","1680"
"negative","undefined","1","undefined","undefined","white","no","legacy","legacy","legacy","0","relative","undefined","undefined","18","NA","0","0","0","0","0","0","0","34","34","0","15","0","no","04/29/19 12:27:34","A simple template for the mouse-tracking paradigm","yes","Experiment-FT.osexp","C:\Users\Kristen\Documents\opPreviewExperiment-master\procedure","no","mono","no","24","no","black","no","yes","1050","legacy","18","15","C:/Users/Kristen/Documents/opPreviewExperiment-master/procedure/subject-24.csv","legacy","Kafkaesque Koffka","3.2.6","mult","0","a","NA","NA","l","l","38952","NA","NA","14943","38952","2","2250","legacy","large","1024","2","48000","-16","experiment","8_4_mult_FNI.jpg","24","even","legacy","212398","NA","132441","NA","NA","1932","NA","1947","93488","212399","215787","16891","90157","1934","mousetracking operator preview effect","0","0","0","no","false","no","1680"
"negative","undefined","1","undefined","undefined","white","no","legacy","legacy","legacy","0","relative","undefined","undefined","19","NA","0","0","0","0","0","0","0","35","35","0","15","0","no","04/29/19 12:27:34","A simple template for the mouse-tracking paradigm","yes","Experiment-FT.osexp","C:\Users\Kristen\Documents\opPreviewExperiment-master\procedure","no","mono","no","24","no","black","no","yes","1050","legacy","19","15","C:/Users/Kristen/Documents/opPreviewExperiment-master/procedure/subject-24.csv","legacy","Kafkaesque Koffka","3.2.6","add","0","a","NA","NA","l","l","38952","NA","NA","14943","38952","2","1691","legacy","large","1024","2","48000","-16","experiment","8_4_add_FI.jpg","24","even","legacy","215806","NA","132441","NA","NA","1932","NA","1947","93488","215806","218646","16891","90157","1934","mousetracking operator preview effect","0","0","0","no","false","no","1680"
"neutral","undefined","1","undefined","undefined","white","no","legacy","legacy","legacy","0","relative","undefined","undefined","20","NA","0","0","0","0","0","0","0","36","36","0","15","0","no","04/29/19 12:27:34","A simple template for the mouse-tracking paradigm","yes","Experiment-FT.osexp","C:\Users\Kristen\Documents\opPreviewExperiment-master\procedure","no","mono","no","24","no","black","no","yes","1050","legacy","20","15","C:/Users/Kristen/Documents/opPreviewExperiment-master/procedure/subject-24.csv","legacy","Kafkaesque Koffka","3.2.6","add","0","a","NA","NA","l","l","38952","NA","NA","14943","38952","2","1855","legacy","small","1024","2","48000","-16","experiment","5_3_add_FI.jpg","24","even","legacy","218673","NA","132441","NA","NA","1932","NA","1947","93488","218673","221503","16891","90157","1934","mousetracking operator preview effect","0","0","0","no","false","no","1680"
"neutral","undefined","1","undefined","undefined","white","no","legacy","legacy","legacy","0","relative","undefined","undefined","21","NA","0","0","0","0","0","0","0","37","37","0","15","0","no","04/29/19 12:27:34","A simple template for the mouse-tracking paradigm","yes","Experiment-FT.osexp","C:\Users\Kristen\Documents\opPreviewExperiment-master\procedure","no","mono","no","24","no","black","no","yes","1050","legacy","21","15","C:/Users/Kristen/Documents/opPreviewExperiment-master/procedure/subject-24.csv","legacy","Kafkaesque Koffka","3.2.6","add","0","l","NA","NA","l","l","38952","NA","NA","14943","38952","2","2225","legacy","large","1024","2","48000","-16","experiment","9_7_add_true.jpg","24","even","legacy","221535","NA","132441","NA","NA","1932","NA","1947","93488","221535","224739","16891","90157","1934","mousetracking operator preview effect","0","0","0","no","true","no","1680"
"negative","undefined","1","undefined","undefined","white","no","legacy","legacy","legacy","0","relative","undefined","undefined","22","NA","0","0","0","0","0","0","0","38","38","0","15","0","no","04/29/19 12:27:34","A simple template for the mouse-tracking paradigm","yes","Experiment-FT.osexp","C:\Users\Kristen\Documents\opPreviewExperiment-master\procedure","no","mono","no","24","no","black","no","yes","1050","legacy","22","15","C:/Users/Kristen/Documents/opPreviewExperiment-master/procedure/subject-24.csv","legacy","Kafkaesque Koffka","3.2.6","mult","0","l","NA","NA","l","l","38952","NA","NA","14943","38952","2","1052","legacy","large","1024","2","48000","-16","experiment","4_9_mult_true.jpg","24","even","legacy","224759","NA","132441","NA","NA","1932","NA","1947","93488","224759","226949","16891","90157","1934","mousetracking operator preview effect","0","0","0","no","true","no","1680"
"neutral","undefined","1","undefined","undefined","white","no","legacy","legacy","legacy","0","relative","undefined","undefined","23","NA","0","0","0","0","0","0","0","39","39","0","15","0","no","04/29/19 12:27:34","A simple template for the mouse-tracking paradigm","yes","Experiment-FT.osexp","C:\Users\Kristen\Documents\opPreviewExperiment-master\procedure","no","mono","no","24","no","black","no","yes","1050","legacy","23","15","C:/Users/Kristen/Documents/opPreviewExperiment-master/procedure/subject-24.csv","legacy","Kafkaesque Koffka","3.2.6","mult","0","l","NA","NA","l","l","38952","NA","NA","14943","38952","2","876","legacy","small","1024","2","48000","-16","experiment","2_7_mult_true.jpg","24","even","legacy","226978","NA","132441","NA","NA","1932","NA","1947","93488","226978","228834","16891","90157","1934","mousetracking operator preview effect","0","0","0","no","true","no","1680"
"neutral","undefined","1","undefined","undefined","white","no","legacy","legacy","legacy","0","relative","undefined","undefined","24","NA","0","0","0","0","0","0","0","40","40","0","15","0","no","04/29/19 12:27:34","A simple template for the mouse-tracking paradigm","yes","Experiment-FT.osexp","C:\Users\Kristen\Documents\opPreviewExperiment-master\procedure","no","mono","no","24","no","black","no","yes","1050","legacy","24","15","C:/Users/Kristen/Documents/opPreviewExperiment-master/procedure/subject-24.csv","legacy","Kafkaesque Koffka","3.2.6","mult","0","l","NA","NA","l","l","38952","NA","NA","14943","38952","2","870","legacy","small","1024","2","48000","-16","experiment","2_7_mult_true.jpg","24","even","legacy","228863","NA","132441","NA","NA","1932","NA","1947","93488","228863","230714","16891","90157","1934","mousetracking operator preview effect","0","0","0","no","true","no","1680"
"negative","undefined","1","undefined","undefined","white","no","legacy","legacy","legacy","0","relative","undefined","undefined","25","NA","0","0","0","0","0","0","0","41","41","0","15","0","no","04/29/19 12:27:34","A simple template for the mouse-tracking paradigm","yes","Experiment-FT.osexp","C:\Users\Kristen\Documents\opPreviewExperiment-master\procedure","no","mono","no","24","no","black","no","yes","1050","legacy","25","15","C:/Users/Kristen/Documents/opPreviewExperiment-master/procedure/subject-24.csv","legacy","Kafkaesque Koffka","3.2.6","add","0","l","NA","NA","l","l","38952","NA","NA","14943","38952","2","995","legacy","small","1024","2","48000","-16","experiment","5_3_add_true.jpg","24","even","legacy","230739","NA","132441","NA","NA","1932","NA","1947","93488","230739","232889","16891","90157","1934","mousetracking operator preview effect","0","0","0","no","true","no","1680"
"negative","undefined","1","undefined","undefined","white","no","legacy","legacy","legacy","0","relative","undefined","undefined","26","NA","0","0","0","0","0","0","0","42","42","0","15","0","no","04/29/19 12:27:34","A simple template for the mouse-tracking paradigm","yes","Experiment-FT.osexp","C:\Users\Kristen\Documents\opPreviewExperiment-master\procedure","no","mono","no","24","no","black","no","yes","1050","legacy","26","15","C:/Users/Kristen/Documents/opPreviewExperiment-master/procedure/subject-24.csv","legacy","Kafkaesque Koffka","3.2.6","add","0","a","NA","NA","l","l","38952","NA","NA","14943","38952","2","1448","legacy","small","1024","2","48000","-16","experiment","8_2_add_FI.jpg","24","even","legacy","232912","NA","132441","NA","NA","1932","NA","1947","93488","232912","235497","16891","90157","1934","mousetracking operator preview effect","0","0","0","no","false","no","1680"
"negative","undefined","1","undefined","undefined","white","no","legacy","legacy","legacy","0","relative","undefined","undefined","27","NA","0","0","0","0","0","0","0","43","43","0","15","0","no","04/29/19 12:27:34","A simple template for the mouse-tracking paradigm","yes","Experiment-FT.osexp","C:\Users\Kristen\Documents\opPreviewExperiment-master\procedure","no","mono","no","24","no","black","no","yes","1050","legacy","27","15","C:/Users/Kristen/Documents/opPreviewExperiment-master/procedure/subject-24.csv","legacy","Kafkaesque Koffka","3.2.6","add","0","a","NA","NA","l","l","38952","NA","NA","14943","38952","2","1948","legacy","small","1024","2","48000","-16","experiment","3_6_add_FNI.jpg","24","even","legacy","235526","NA","132441","NA","NA","1932","NA","1947","93488","235527","238622","16891","90157","1934","mousetracking operator preview effect","0","0","0","no","false","no","1680"
"negative","undefined","1","undefined","undefined","white","no","legacy","legacy","legacy","0","relative","undefined","undefined","28","NA","0","0","0","0","0","0","0","44","44","0","15","0","no","04/29/19 12:27:34","A simple template for the mouse-tracking paradigm","yes","Experiment-FT.osexp","C:\Users\Kristen\Documents\opPreviewExperiment-master\procedure","no","mono","no","24","no","black","no","yes","1050","legacy","28","15","C:/Users/Kristen/Documents/opPreviewExperiment-master/procedure/subject-24.csv","legacy","Kafkaesque Koffka","3.2.6","mult","0","l","NA","NA","l","l","38952","NA","NA","14943","38952","2","2072","legacy","small","1024","2","48000","-16","experiment","3_6_mult_true.jpg","24","even","legacy","238642","NA","132441","NA","NA","1932","NA","1947","93488","238642","241866","16891","90157","1934","mousetracking operator preview effect","0","0","0","no","true","no","1680"
"neutral","undefined","1","undefined","undefined","white","no","legacy","legacy","legacy","0","relative","undefined","undefined","29","NA","0","0","0","0","0","0","0","45","45","0","15","0","no","04/29/19 12:27:34","A simple template for the mouse-tracking paradigm","yes","Experiment-FT.osexp","C:\Users\Kristen\Documents\opPreviewExperiment-master\procedure","no","mono","no","24","no","black","no","yes","1050","legacy","29","15","C:/Users/Kristen/Documents/opPreviewExperiment-master/procedure/subject-24.csv","legacy","Kafkaesque Koffka","3.2.6","mult","0","l","NA","NA","l","l","38952","NA","NA","14943","38952","2","1206","legacy","small","1024","2","48000","-16","experiment","8_2_mult_true.jpg","24","even","legacy","241887","NA","132441","NA","NA","1932","NA","1947","93488","241887","244075","16891","90157","1934","mousetracking operator preview effect","0","0","0","no","true","no","1680"
"negative","undefined","1","undefined","undefined","white","no","legacy","legacy","legacy","0","relative","undefined","undefined","30","NA","0","0","0","0","0","0","0","46","46","0","15","0","no","04/29/19 12:27:34","A simple template for the mouse-tracking paradigm","yes","Experiment-FT.osexp","C:\Users\Kristen\Documents\opPreviewExperiment-master\procedure","no","mono","no","24","no","black","no","yes","1050","legacy","30","15","C:/Users/Kristen/Documents/opPreviewExperiment-master/procedure/subject-24.csv","legacy","Kafkaesque Koffka","3.2.6","mult","0","l","NA","NA","l","l","38952","NA","NA","14943","38952","2","922","legacy","large","1024","2","48000","-16","experiment","9_7_mult_true.jpg","24","even","legacy","244097","NA","132441","NA","NA","1932","NA","1947","93488","244097","246165","16891","90157","1934","mousetracking operator preview effect","0","0","0","no","true","no","1680"
"neutral","undefined","1","undefined","undefined","white","no","legacy","legacy","legacy","0","relative","undefined","undefined","31","NA","0","0","0","0","0","0","0","47","47","0","15","0","no","04/29/19 12:27:34","A simple template for the mouse-tracking paradigm","yes","Experiment-FT.osexp","C:\Users\Kristen\Documents\opPreviewExperiment-master\procedure","no","mono","no","24","no","black","no","yes","1050","legacy","31","15","C:/Users/Kristen/Documents/opPreviewExperiment-master/procedure/subject-24.csv","legacy","Kafkaesque Koffka","3.2.6","add","0","a","NA","NA","l","l","38952","NA","NA","14943","38952","2","1456","legacy","large","1024","2","48000","-16","experiment","8_4_add_FI.jpg","24","even","legacy","246194","NA","132441","NA","NA","1932","NA","1947","93488","246195","248637","16891","90157","1934","mousetracking operator preview effect","0","0","0","no","false","no","1680"
"neutral","undefined","1","undefined","undefined","white","no","legacy","legacy","legacy","0","relative","undefined","undefined","32","NA","0","0","0","0","0","0","0","48","48","0","15","0","no","04/29/19 12:27:34","A simple template for the mouse-tracking paradigm","yes","Experiment-FT.osexp","C:\Users\Kristen\Documents\opPreviewExperiment-master\procedure","no","mono","no","24","no","black","no","yes","1050","legacy","32","15","C:/Users/Kristen/Documents/opPreviewExperiment-master/procedure/subject-24.csv","legacy","Kafkaesque Koffka","3.2.6","add","0","a","NA","NA","l","l","38952","NA","NA","14943","38952","2","3633","legacy","large","1024","2","48000","-16","experiment","4_9_add_FNI.jpg","24","even","legacy","248658","NA","132441","NA","NA","1932","NA","1947","93488","248658","253267","16891","90157","1934","mousetracking operator preview effect","0","0","0","no","false","no","1680"
"neutral","undefined","1","undefined","undefined","white","no","legacy","legacy","legacy","0","relative","undefined","undefined","33","NA","0","0","0","0","0","0","0","49","49","0","15","0","no","04/29/19 12:27:34","A simple template for the mouse-tracking paradigm","yes","Experiment-FT.osexp","C:\Users\Kristen\Documents\opPreviewExperiment-master\procedure","no","mono","no","24","no","black","no","yes","1050","legacy","33","15","C:/Users/Kristen/Documents/opPreviewExperiment-master/procedure/subject-24.csv","legacy","Kafkaesque Koffka","3.2.6","mult","0","a","NA","NA","l","l","38952","NA","NA","14943","38952","2","2153","legacy","small","1024","2","48000","-16","experiment","8_2_mult_FI.jpg","24","even","legacy","253288","NA","132441","NA","NA","1932","NA","1947","93488","253288","256415","16891","90157","1934","mousetracking operator preview effect","0","0","0","no","false","no","1680"
"negative","undefined","1","undefined","undefined","white","no","legacy","legacy","legacy","0","relative","undefined","undefined","34","NA","0","0","0","0","0","0","0","50","50","0","15","0","no","04/29/19 12:27:34","A simple template for the mouse-tracking paradigm","yes","Experiment-FT.osexp","C:\Users\Kristen\Documents\opPreviewExperiment-master\procedure","no","mono","no","24","no","black","no","yes","1050","legacy","34","15","C:/Users/Kristen/Documents/opPreviewExperiment-master/procedure/subject-24.csv","legacy","Kafkaesque Koffka","3.2.6","mult","0","l","NA","NA","l","l","38952","NA","NA","14943","38952","2","1402","legacy","small","1024","2","48000","-16","experiment","8_2_mult_true.jpg","24","even","legacy","256445","NA","132441","NA","NA","1932","NA","1947","93488","256445","258995","16891","90157","1934","mousetracking operator preview effect","0","0","0","no","true","no","1680"
"negative","undefined","1","undefined","undefined","white","no","legacy","legacy","legacy","0","relative","undefined","undefined","35","NA","0","0","0","0","0","0","0","51","51","0","15","0","no","04/29/19 12:27:34","A simple template for the mouse-tracking paradigm","yes","Experiment-FT.osexp","C:\Users\Kristen\Documents\opPreviewExperiment-master\procedure","no","mono","no","24","no","black","no","yes","1050","legacy","35","15","C:/Users/Kristen/Documents/opPreviewExperiment-master/procedure/subject-24.csv","legacy","Kafkaesque Koffka","3.2.6","mult","0","l","NA","NA","l","l","38952","NA","NA","14943","38952","2","1041","legacy","small","1024","2","48000","-16","experiment","2_7_mult_true.jpg","24","even","legacy","259025","NA","132441","NA","NA","1932","NA","1947","93488","259025","261216","16891","90157","1934","mousetracking operator preview effect","0","0","0","no","true","no","1680"
"neutral","undefined","1","undefined","undefined","white","no","legacy","legacy","legacy","0","relative","undefined","undefined","36","NA","0","0","0","0","0","0","0","52","52","0","15","0","no","04/29/19 12:27:34","A simple template for the mouse-tracking paradigm","yes","Experiment-FT.osexp","C:\Users\Kristen\Documents\opPreviewExperiment-master\procedure","no","mono","no","24","no","black","no","yes","1050","legacy","36","15","C:/Users/Kristen/Documents/opPreviewExperiment-master/procedure/subject-24.csv","legacy","Kafkaesque Koffka","3.2.6","add","0","l","NA","NA","l","l","38952","NA","NA","14943","38952","2","2699","legacy","large","1024","2","48000","-16","experiment","6_8_add_true.jpg","24","even","legacy","261240","NA","132441","NA","NA","1932","NA","1947","93488","261240","264916","16891","90157","1934","mousetracking operator preview effect","0","0","0","no","true","no","1680"
"negative","undefined","1","undefined","undefined","white","no","legacy","legacy","legacy","0","relative","undefined","undefined","37","NA","0","0","0","0","0","0","0","53","53","0","15","0","no","04/29/19 12:27:34","A simple template for the mouse-tracking paradigm","yes","Experiment-FT.osexp","C:\Users\Kristen\Documents\opPreviewExperiment-master\procedure","no","mono","no","24","no","black","no","yes","1050","legacy","37","15","C:/Users/Kristen/Documents/opPreviewExperiment-master/procedure/subject-24.csv","legacy","Kafkaesque Koffka","3.2.6","add","0","a","NA","NA","l","l","38952","NA","NA","14943","38952","2","1792","legacy","large","1024","2","48000","-16","experiment","6_8_add_FI.jpg","24","even","legacy","264945","NA","132441","NA","NA","1932","NA","1947","93488","264945","267883","16891","90157","1934","mousetracking operator preview effect","0","0","0","no","false","no","1680"
"negative","undefined","1","undefined","undefined","white","no","legacy","legacy","legacy","0","relative","undefined","undefined","38","NA","0","0","0","0","0","0","0","54","54","0","15","0","no","04/29/19 12:27:34","A simple template for the mouse-tracking paradigm","yes","Experiment-FT.osexp","C:\Users\Kristen\Documents\opPreviewExperiment-master\procedure","no","mono","no","24","no","black","no","yes","1050","legacy","38","15","C:/Users/Kristen/Documents/opPreviewExperiment-master/procedure/subject-24.csv","legacy","Kafkaesque Koffka","3.2.6","add","0","l","NA","NA","l","l","38952","NA","NA","14943","38952","2","1777","legacy","large","1024","2","48000","-16","experiment","8_4_add_true.jpg","24","even","legacy","267911","NA","132441","NA","NA","1932","NA","1947","93488","267911","270843","16891","90157","1934","mousetracking operator preview effect","0","0","0","no","true","no","1680"
"neutral","undefined","1","undefined","undefined","white","no","legacy","legacy","legacy","0","relative","undefined","undefined","39","NA","0","0","0","0","0","0","0","55","55","0","15","0","no","04/29/19 12:27:34","A simple template for the mouse-tracking paradigm","yes","Experiment-FT.osexp","C:\Users\Kristen\Documents\opPreviewExperiment-master\procedure","no","mono","no","24","no","black","no","yes","1050","legacy","39","15","C:/Users/Kristen/Documents/opPreviewExperiment-master/procedure/subject-24.csv","legacy","Kafkaesque Koffka","3.2.6","add","0","a","NA","NA","l","l","38952","NA","NA","14943","38952","2","2580","legacy","small","1024","2","48000","-16","experiment","8_2_add_FI.jpg","24","even","legacy","270863","NA","132441","NA","NA","1932","NA","1947","93488","270863","274421","16891","90157","1934","mousetracking operator preview effect","0","0","0","no","false","no","1680"
"neutral","undefined","1","undefined","undefined","white","no","legacy","legacy","legacy","0","relative","undefined","undefined","40","NA","0","0","0","0","0","0","0","56","56","0","15","0","no","04/29/19 12:27:34","A simple template for the mouse-tracking paradigm","yes","Experiment-FT.osexp","C:\Users\Kristen\Documents\opPreviewExperiment-master\procedure","no","mono","no","24","no","black","no","yes","1050","legacy","40","15","C:/Users/Kristen/Documents/opPreviewExperiment-master/procedure/subject-24.csv","legacy","Kafkaesque Koffka","3.2.6","add","0","l","NA","NA","l","l","38952","NA","NA","14943","38952","2","4217","legacy","large","1024","2","48000","-16","experiment","9_7_add_true.jpg","24","even","legacy","274446","NA","132441","NA","NA","1932","NA","1947","93488","274446","279642","16891","90157","1934","mousetracking operator preview effect","0","0","0","no","true","no","1680"
"neutral","undefined","1","undefined","undefined","white","no","legacy","legacy","legacy","0","relative","undefined","undefined","41","NA","0","0","0","0","0","0","0","57","57","0","15","0","no","04/29/19 12:27:34","A simple template for the mouse-tracking paradigm","yes","Experiment-FT.osexp","C:\Users\Kristen\Documents\opPreviewExperiment-master\procedure","no","mono","no","24","no","black","no","yes","1050","legacy","41","15","C:/Users/Kristen/Documents/opPreviewExperiment-master/procedure/subject-24.csv","legacy","Kafkaesque Koffka","3.2.6","mult","0","a","NA","NA","l","l","38952","NA","NA","14943","38952","2","1550","legacy","large","1024","2","48000","-16","experiment","8_4_mult_FNI.jpg","24","even","legacy","279671","NA","132441","NA","NA","1932","NA","1947","93488","279671","282188","16891","90157","1934","mousetracking operator preview effect","0","0","0","no","false","no","1680"
"negative","undefined","1","undefined","undefined","white","no","legacy","legacy","legacy","0","relative","undefined","undefined","42","NA","0","0","0","0","0","0","0","58","58","0","15","0","no","04/29/19 12:27:34","A simple template for the mouse-tracking paradigm","yes","Experiment-FT.osexp","C:\Users\Kristen\Documents\opPreviewExperiment-master\procedure","no","mono","no","24","no","black","no","yes","1050","legacy","42","15","C:/Users/Kristen/Documents/opPreviewExperiment-master/procedure/subject-24.csv","legacy","Kafkaesque Koffka","3.2.6","add","0","l","NA","NA","l","l","38952","NA","NA","14943","38952","2","1288","legacy","small","1024","2","48000","-16","experiment","2_7_add_true.jpg","24","even","legacy","282212","NA","132441","NA","NA","1932","NA","1947","93488","282212","284650","16891","90157","1934","mousetracking operator preview effect","0","0","0","no","true","no","1680"
"neutral","undefined","1","undefined","undefined","white","no","legacy","legacy","legacy","0","relative","undefined","undefined","43","NA","0","0","0","0","0","0","0","59","59","0","15","0","no","04/29/19 12:27:34","A simple template for the mouse-tracking paradigm","yes","Experiment-FT.osexp","C:\Users\Kristen\Documents\opPreviewExperiment-master\procedure","no","mono","no","24","no","black","no","yes","1050","legacy","43","15","C:/Users/Kristen/Documents/opPreviewExperiment-master/procedure/subject-24.csv","legacy","Kafkaesque Koffka","3.2.6","add","0","a","NA","NA","l","l","38952","NA","NA","14943","38952","2","1553","legacy","large","1024","2","48000","-16","experiment","9_7_add_FI.jpg","24","even","legacy","284671","NA","132441","NA","NA","1932","NA","1947","93488","284671","287194","16891","90157","1934","mousetracking operator preview effect","0","0","0","no","false","no","1680"
"negative","undefined","1","undefined","undefined","white","no","legacy","legacy","legacy","0","relative","undefined","undefined","44","NA","0","0","0","0","0","0","0","60","60","0","15","0","no","04/29/19 12:27:34","A simple template for the mouse-tracking paradigm","yes","Experiment-FT.osexp","C:\Users\Kristen\Documents\opPreviewExperiment-master\procedure","no","mono","no","24","no","black","no","yes","1050","legacy","44","15","C:/Users/Kristen/Documents/opPreviewExperiment-master/procedure/subject-24.csv","legacy","Kafkaesque Koffka","3.2.6","mult","0","a","NA","NA","l","l","38952","NA","NA","14943","38952","2","1843","legacy","large","1024","2","48000","-16","experiment","9_7_mult_FI.jpg","24","even","legacy","287220","NA","132441","NA","NA","1932","NA","1947","93488","287220","290215","16891","90157","1934","mousetracking operator preview effect","0","0","0","no","false","no","1680"
"negative","undefined","1","undefined","undefined","white","no","legacy","legacy","legacy","0","relative","undefined","undefined","45","NA","0","0","0","0","0","0","0","61","61","0","15","0","no","04/29/19 12:27:34","A simple template for the mouse-tracking paradigm","yes","Experiment-FT.osexp","C:\Users\Kristen\Documents\opPreviewExperiment-master\procedure","no","mono","no","24","no","black","no","yes","1050","legacy","45","15","C:/Users/Kristen/Documents/opPreviewExperiment-master/procedure/subject-24.csv","legacy","Kafkaesque Koffka","3.2.6","add","0","l","NA","NA","l","l","38952","NA","NA","14943","38952","2","1058","legacy","small","1024","2","48000","-16","experiment","8_2_add_true.jpg","24","even","legacy","290228","NA","132441","NA","NA","1932","NA","1947","93488","290228","292435","16891","90157","1934","mousetracking operator preview effect","0","0","0","no","true","no","1680"
"neutral","undefined","1","undefined","undefined","white","no","legacy","legacy","legacy","0","relative","undefined","undefined","46","NA","0","0","0","0","0","0","0","62","62","0","15","0","no","04/29/19 12:27:34","A simple template for the mouse-tracking paradigm","yes","Experiment-FT.osexp","C:\Users\Kristen\Documents\opPreviewExperiment-master\procedure","no","mono","no","24","no","black","no","yes","1050","legacy","46","15","C:/Users/Kristen/Documents/opPreviewExperiment-master/procedure/subject-24.csv","legacy","Kafkaesque Koffka","3.2.6","add","0","l","NA","NA","l","l","38952","NA","NA","14943","38952","2","1162","legacy","large","1024","2","48000","-16","experiment","8_4_add_true.jpg","24","even","legacy","292455","NA","132441","NA","NA","1932","NA","1947","93488","292455","294595","16891","90157","1934","mousetracking operator preview effect","0","0","0","no","true","no","1680"
"neutral","undefined","1","undefined","undefined","white","no","legacy","legacy","legacy","0","relative","undefined","undefined","47","NA","0","0","0","0","0","0","0","63","63","0","15","0","no","04/29/19 12:27:34","A simple template for the mouse-tracking paradigm","yes","Experiment-FT.osexp","C:\Users\Kristen\Documents\opPreviewExperiment-master\procedure","no","mono","no","24","no","black","no","yes","1050","legacy","47","15","C:/Users/Kristen/Documents/opPreviewExperiment-master/procedure/subject-24.csv","legacy","Kafkaesque Koffka","3.2.6","add","0","l","NA","NA","l","l","38952","NA","NA","14943","38952","2","825","legacy","small","1024","2","48000","-16","experiment","3_6_add_true.jpg","24","even","legacy","294616","NA","132441","NA","NA","1932","NA","1947","93488","294616","296412","16891","90157","1934","mousetracking operator preview effect","0","0","0","no","true","no","1680"
"negative","undefined","1","undefined","undefined","white","no","legacy","legacy","legacy","0","relative","undefined","undefined","48","NA","0","0","0","0","0","0","0","64","64","0","15","0","no","04/29/19 12:27:34","A simple template for the mouse-tracking paradigm","yes","Experiment-FT.osexp","C:\Users\Kristen\Documents\opPreviewExperiment-master\procedure","no","mono","no","24","no","black","no","yes","1050","legacy","48","15","C:/Users/Kristen/Documents/opPreviewExperiment-master/procedure/subject-24.csv","legacy","Kafkaesque Koffka","3.2.6","mult","0","l","NA","NA","l","l","38952","NA","NA","14943","38952","2","823","legacy","small","1024","2","48000","-16","experiment","2_7_mult_true.jpg","24","even","legacy","296440","NA","132441","NA","NA","1932","NA","1947","93488","296440","298416","16891","90157","1934","mousetracking operator preview effect","0","0","0","no","true","no","1680"
"negative","undefined","1","undefined","undefined","white","no","legacy","legacy","legacy","0","relative","undefined","undefined","49","NA","0","0","0","0","0","0","0","65","65","0","15","0","no","04/29/19 12:27:34","A simple template for the mouse-tracking paradigm","yes","Experiment-FT.osexp","C:\Users\Kristen\Documents\opPreviewExperiment-master\procedure","no","mono","no","24","no","black","no","yes","1050","legacy","49","15","C:/Users/Kristen/Documents/opPreviewExperiment-master/procedure/subject-24.csv","legacy","Kafkaesque Koffka","3.2.6","add","0","l","NA","NA","l","l","38952","NA","NA","14943","38952","2","637","legacy","small","1024","2","48000","-16","experiment","3_6_add_true.jpg","24","even","legacy","298438","NA","132441","NA","NA","1932","NA","1947","93488","298438","300226","16891","90157","1934","mousetracking operator preview effect","0","0","0","no","true","no","1680"
"neutral","undefined","1","undefined","undefined","white","no","legacy","legacy","legacy","0","relative","undefined","undefined","50","NA","0","0","0","0","0","0","0","66","66","0","15","0","no","04/29/19 12:27:34","A simple template for the mouse-tracking paradigm","yes","Experiment-FT.osexp","C:\Users\Kristen\Documents\opPreviewExperiment-master\procedure","no","mono","no","24","no","black","no","yes","1050","legacy","50","15","C:/Users/Kristen/Documents/opPreviewExperiment-master/procedure/subject-24.csv","legacy","Kafkaesque Koffka","3.2.6","mult","0","l","NA","NA","l","l","38952","NA","NA","14943","38952","2","1394","legacy","small","1024","2","48000","-16","experiment","8_2_mult_true.jpg","24","even","legacy","300241","NA","132441","NA","NA","1932","NA","1947","93488","300241","302625","16891","90157","1934","mousetracking operator preview effect","0","0","0","no","true","no","1680"
"neutral","undefined","1","undefined","undefined","white","no","legacy","legacy","legacy","0","relative","undefined","undefined","51","NA","0","0","0","0","0","0","0","67","67","0","15","0","no","04/29/19 12:27:34","A simple template for the mouse-tracking paradigm","yes","Experiment-FT.osexp","C:\Users\Kristen\Documents\opPreviewExperiment-master\procedure","no","mono","no","24","no","black","no","yes","1050","legacy","51","15","C:/Users/Kristen/Documents/opPreviewExperiment-master/procedure/subject-24.csv","legacy","Kafkaesque Koffka","3.2.6","add","0","a","NA","NA","l","l","38952","NA","NA","14943","38952","2","1407","legacy","small","1024","2","48000","-16","experiment","3_6_add_FNI.jpg","24","even","legacy","302653","NA","132441","NA","NA","1932","NA","1947","93488","302653","305041","16891","90157","1934","mousetracking operator preview effect","0","0","0","no","false","no","1680"
"neutral","undefined","1","undefined","undefined","white","no","legacy","legacy","legacy","0","relative","undefined","undefined","52","NA","0","0","0","0","0","0","0","68","68","0","15","0","no","04/29/19 12:27:34","A simple template for the mouse-tracking paradigm","yes","Experiment-FT.osexp","C:\Users\Kristen\Documents\opPreviewExperiment-master\procedure","no","mono","no","24","no","black","no","yes","1050","legacy","52","15","C:/Users/Kristen/Documents/opPreviewExperiment-master/procedure/subject-24.csv","legacy","Kafkaesque Koffka","3.2.6","add","0","l","NA","NA","l","l","38952","NA","NA","14943","38952","2","1297","legacy","small","1024","2","48000","-16","experiment","5_3_add_true.jpg","24","even","legacy","305056","NA","132441","NA","NA","1932","NA","1947","93488","305056","307330","16891","90157","1934","mousetracking operator preview effect","0","0","0","no","true","no","1680"
"neutral","undefined","1","undefined","undefined","white","no","legacy","legacy","legacy","0","relative","undefined","undefined","53","NA","0","0","0","0","0","0","0","69","69","0","15","0","no","04/29/19 12:27:34","A simple template for the mouse-tracking paradigm","yes","Experiment-FT.osexp","C:\Users\Kristen\Documents\opPreviewExperiment-master\procedure","no","mono","no","24","no","black","no","yes","1050","legacy","53","15","C:/Users/Kristen/Documents/opPreviewExperiment-master/procedure/subject-24.csv","legacy","Kafkaesque Koffka","3.2.6","mult","0","l","NA","NA","l","l","38952","NA","NA","14943","38952","2","812","legacy","small","1024","2","48000","-16","experiment","5_3_mult_true.jpg","24","even","legacy","307351","NA","132441","NA","NA","1932","NA","1947","93488","307351","309142","16891","90157","1934","mousetracking operator preview effect","0","0","0","no","true","no","1680"
"negative","undefined","0","undefined","undefined","white","no","legacy","legacy","legacy","0","relative","undefined","undefined","54","NA","0","0","0","0","0","0","0","70","70","0","15","0","no","04/29/19 12:27:34","A simple template for the mouse-tracking paradigm","yes","Experiment-FT.osexp","C:\Users\Kristen\Documents\opPreviewExperiment-master\procedure","no","mono","no","24","no","black","no","yes","1050","legacy","54","15","C:/Users/Kristen/Documents/opPreviewExperiment-master/procedure/subject-24.csv","legacy","Kafkaesque Koffka","3.2.6","add","0","l","NA","NA","l","l","38952","NA","NA","14943","38952","2","1926","legacy","large","1024","2","48000","-16","experiment","4_9_add_FNI.jpg","24","even","legacy","309165","NA","132441","NA","NA","1932","NA","1947","93488","309166","313263","16891","90157","1934","mousetracking operator preview effect","0","0","0","no","false","no","1680"
"negative","undefined","1","undefined","undefined","white","no","legacy","legacy","legacy","0","relative","undefined","undefined","55","NA","0","0","0","0","0","0","0","71","71","0","15","0","no","04/29/19 12:27:34","A simple template for the mouse-tracking paradigm","yes","Experiment-FT.osexp","C:\Users\Kristen\Documents\opPreviewExperiment-master\procedure","no","mono","no","24","no","black","no","yes","1050","legacy","55","15","C:/Users/Kristen/Documents/opPreviewExperiment-master/procedure/subject-24.csv","legacy","Kafkaesque Koffka","3.2.6","mult","0","l","NA","NA","l","l","38952","NA","NA","14943","38952","2","676","legacy","small","1024","2","48000","-16","experiment","8_2_mult_true.jpg","24","even","legacy","313307","NA","132441","NA","NA","1932","NA","1947","93488","313308","315140","16891","90157","1934","mousetracking operator preview effect","0","0","0","no","true","no","1680"
"negative","undefined","1","undefined","undefined","white","no","legacy","legacy","legacy","0","relative","undefined","undefined","56","NA","0","0","0","0","0","0","0","72","72","0","15","0","no","04/29/19 12:27:34","A simple template for the mouse-tracking paradigm","yes","Experiment-FT.osexp","C:\Users\Kristen\Documents\opPreviewExperiment-master\procedure","no","mono","no","24","no","black","no","yes","1050","legacy","56","15","C:/Users/Kristen/Documents/opPreviewExperiment-master/procedure/subject-24.csv","legacy","Kafkaesque Koffka","3.2.6","mult","0","a","NA","NA","l","l","38952","NA","NA","14943","38952","2","1726","legacy","small","1024","2","48000","-16","experiment","2_7_mult_FNI.jpg","24","even","legacy","315162","NA","132441","NA","NA","1932","NA","1947","93488","315162","318041","16891","90157","1934","mousetracking operator preview effect","0","0","0","no","false","no","1680"
"neutral","undefined","1","undefined","undefined","white","no","legacy","legacy","legacy","0","relative","undefined","undefined","57","NA","0","0","0","0","0","0","0","73","73","0","15","0","no","04/29/19 12:27:34","A simple template for the mouse-tracking paradigm","yes","Experiment-FT.osexp","C:\Users\Kristen\Documents\opPreviewExperiment-master\procedure","no","mono","no","24","no","black","no","yes","1050","legacy","57","15","C:/Users/Kristen/Documents/opPreviewExperiment-master/procedure/subject-24.csv","legacy","Kafkaesque Koffka","3.2.6","add","0","l","NA","NA","l","l","38952","NA","NA","14943","38952","2","1672","legacy","small","1024","2","48000","-16","experiment","2_7_add_true.jpg","24","even","legacy","318069","NA","132441","NA","NA","1932","NA","1947","93488","318069","320719","16891","90157","1934","mousetracking operator preview effect","0","0","0","no","true","no","1680"
"negative","undefined","1","undefined","undefined","white","no","legacy","legacy","legacy","0","relative","undefined","undefined","58","NA","0","0","0","0","0","0","0","74","74","0","15","0","no","04/29/19 12:27:34","A simple template for the mouse-tracking paradigm","yes","Experiment-FT.osexp","C:\Users\Kristen\Documents\opPreviewExperiment-master\procedure","no","mono","no","24","no","black","no","yes","1050","legacy","58","15","C:/Users/Kristen/Documents/opPreviewExperiment-master/procedure/subject-24.csv","legacy","Kafkaesque Koffka","3.2.6","mult","0","a","NA","NA","l","l","38952","NA","NA","14943","38952","2","1260","legacy","small","1024","2","48000","-16","experiment","5_3_mult_FI.jpg","24","even","legacy","320745","NA","132441","NA","NA","1932","NA","1947","93488","320745","323150","16891","90157","1934","mousetracking operator preview effect","0","0","0","no","false","no","1680"
"neutral","undefined","1","undefined","undefined","white","no","legacy","legacy","legacy","0","relative","undefined","undefined","59","NA","0","0","0","0","0","0","0","75","75","0","15","0","no","04/29/19 12:27:34","A simple template for the mouse-tracking paradigm","yes","Experiment-FT.osexp","C:\Users\Kristen\Documents\opPreviewExperiment-master\procedure","no","mono","no","24","no","black","no","yes","1050","legacy","59","15","C:/Users/Kristen/Documents/opPreviewExperiment-master/procedure/subject-24.csv","legacy","Kafkaesque Koffka","3.2.6","add","0","l","NA","NA","l","l","38952","NA","NA","14943","38952","2","936","legacy","large","1024","2","48000","-16","experiment","8_4_add_true.jpg","24","even","legacy","323171","NA","132441","NA","NA","1932","NA","1947","93488","323171","325087","16891","90157","1934","mousetracking operator preview effect","0","0","0","no","true","no","1680"
"neutral","undefined","1","undefined","undefined","white","no","legacy","legacy","legacy","0","relative","undefined","undefined","60","NA","0","0","0","0","0","0","0","76","76","0","15","0","no","04/29/19 12:27:34","A simple template for the mouse-tracking paradigm","yes","Experiment-FT.osexp","C:\Users\Kristen\Documents\opPreviewExperiment-master\procedure","no","mono","no","24","no","black","no","yes","1050","legacy","60","15","C:/Users/Kristen/Documents/opPreviewExperiment-master/procedure/subject-24.csv","legacy","Kafkaesque Koffka","3.2.6","add","0","a","NA","NA","l","l","38952","NA","NA","14943","38952","2","1616","legacy","small","1024","2","48000","-16","experiment","3_6_add_FI.jpg","24","even","legacy","325108","NA","132441","NA","NA","1932","NA","1947","93488","325108","327705","16891","90157","1934","mousetracking operator preview effect","0","0","0","no","false","no","1680"
"neutral","undefined","1","undefined","undefined","white","no","legacy","legacy","legacy","0","relative","undefined","undefined","61","NA","0","0","0","0","0","0","0","77","77","0","15","0","no","04/29/19 12:27:34","A simple template for the mouse-tracking paradigm","yes","Experiment-FT.osexp","C:\Users\Kristen\Documents\opPreviewExperiment-master\procedure","no","mono","no","24","no","black","no","yes","1050","legacy","61","15","C:/Users/Kristen/Documents/opPreviewExperiment-master/procedure/subject-24.csv","legacy","Kafkaesque Koffka","3.2.6","add","0","l","NA","NA","l","l","38952","NA","NA","14943","38952","2","968","legacy","small","1024","2","48000","-16","experiment","2_7_add_true.jpg","24","even","legacy","327726","NA","132441","NA","NA","1932","NA","1947","93488","327726","329674","16891","90157","1934","mousetracking operator preview effect","0","0","0","no","true","no","1680"
"negative","undefined","1","undefined","undefined","white","no","legacy","legacy","legacy","0","relative","undefined","undefined","62","NA","0","0","0","0","0","0","0","78","78","0","15","0","no","04/29/19 12:27:34","A simple template for the mouse-tracking paradigm","yes","Experiment-FT.osexp","C:\Users\Kristen\Documents\opPreviewExperiment-master\procedure","no","mono","no","24","no","black","no","yes","1050","legacy","62","15","C:/Users/Kristen/Documents/opPreviewExperiment-master/procedure/subject-24.csv","legacy","Kafkaesque Koffka","3.2.6","mult","0","l","NA","NA","l","l","38952","NA","NA","14943","38952","2","1571","legacy","small","1024","2","48000","-16","experiment","5_3_mult_true.jpg","24","even","legacy","329696","NA","132441","NA","NA","1932","NA","1947","93488","329696","332409","16891","90157","1934","mousetracking operator preview effect","0","0","0","no","true","no","1680"
"negative","undefined","1","undefined","undefined","white","no","legacy","legacy","legacy","0","relative","undefined","undefined","63","NA","0","0","0","0","0","0","0","79","79","0","15","0","no","04/29/19 12:27:34","A simple template for the mouse-tracking paradigm","yes","Experiment-FT.osexp","C:\Users\Kristen\Documents\opPreviewExperiment-master\procedure","no","mono","no","24","no","black","no","yes","1050","legacy","63","15","C:/Users/Kristen/Documents/opPreviewExperiment-master/procedure/subject-24.csv","legacy","Kafkaesque Koffka","3.2.6","add","0","l","NA","NA","l","l","38952","NA","NA","14943","38952","2","2673","legacy","large","1024","2","48000","-16","experiment","4_9_add_true.jpg","24","even","legacy","332433","NA","132441","NA","NA","1932","NA","1947","93488","332433","336256","16891","90157","1934","mousetracking operator preview effect","0","0","0","no","true","no","1680"
"neutral","undefined","1","undefined","undefined","white","no","legacy","legacy","legacy","0","relative","undefined","undefined","64","NA","0","0","0","0","0","0","0","80","80","0","15","0","no","04/29/19 12:27:34","A simple template for the mouse-tracking paradigm","yes","Experiment-FT.osexp","C:\Users\Kristen\Documents\opPreviewExperiment-master\procedure","no","mono","no","24","no","black","no","yes","1050","legacy","64","15","C:/Users/Kristen/Documents/opPreviewExperiment-master/procedure/subject-24.csv","legacy","Kafkaesque Koffka","3.2.6","mult","0","l","NA","NA","l","l","38952","NA","NA","14943","38952","2","1304","legacy","large","1024","2","48000","-16","experiment","8_4_mult_true.jpg","24","even","legacy","336270","NA","132441","NA","NA","1932","NA","1947","93488","336270","338546","16891","90157","1934","mousetracking operator preview effect","0","0","0","no","true","no","1680"
"negative","undefined","1","undefined","undefined","white","no","legacy","legacy","legacy","0","relative","undefined","undefined","65","NA","0","0","0","0","0","0","0","81","81","0","15","0","no","04/29/19 12:27:34","A simple template for the mouse-tracking paradigm","yes","Experiment-FT.osexp","C:\Users\Kristen\Documents\opPreviewExperiment-master\procedure","no","mono","no","24","no","black","no","yes","1050","legacy","65","15","C:/Users/Kristen/Documents/opPreviewExperiment-master/procedure/subject-24.csv","legacy","Kafkaesque Koffka","3.2.6","add","0","l","NA","NA","l","l","38952","NA","NA","14943","38952","2","1557","legacy","large","1024","2","48000","-16","experiment","9_7_add_true.jpg","24","even","legacy","338566","NA","132441","NA","NA","1932","NA","1947","93488","338566","341268","16891","90157","1934","mousetracking operator preview effect","0","0","0","no","true","no","1680"
"neutral","undefined","1","undefined","undefined","white","no","legacy","legacy","legacy","0","relative","undefined","undefined","66","NA","0","0","0","0","0","0","0","82","82","0","15","0","no","04/29/19 12:27:34","A simple template for the mouse-tracking paradigm","yes","Experiment-FT.osexp","C:\Users\Kristen\Documents\opPreviewExperiment-master\procedure","no","mono","no","24","no","black","no","yes","1050","legacy","66","15","C:/Users/Kristen/Documents/opPreviewExperiment-master/procedure/subject-24.csv","legacy","Kafkaesque Koffka","3.2.6","add","0","a","NA","NA","l","l","38952","NA","NA","14943","38952","2","1505","legacy","large","1024","2","48000","-16","experiment","6_8_add_FI.jpg","24","even","legacy","341293","NA","132441","NA","NA","1932","NA","1947","93488","341293","343774","16891","90157","1934","mousetracking operator preview effect","0","0","0","no","false","no","1680"
"neutral","undefined","1","undefined","undefined","white","no","legacy","legacy","legacy","0","relative","undefined","undefined","67","NA","0","0","0","0","0","0","0","83","83","0","15","0","no","04/29/19 12:27:34","A simple template for the mouse-tracking paradigm","yes","Experiment-FT.osexp","C:\Users\Kristen\Documents\opPreviewExperiment-master\procedure","no","mono","no","24","no","black","no","yes","1050","legacy","67","15","C:/Users/Kristen/Documents/opPreviewExperiment-master/procedure/subject-24.csv","legacy","Kafkaesque Koffka","3.2.6","add","0","a","NA","NA","l","l","38952","NA","NA","14943","38952","2","3326","legacy","large","1024","2","48000","-16","experiment","9_7_add_FNI.jpg","24","even","legacy","343796","NA","132441","NA","NA","1932","NA","1947","93488","343796","348078","16891","90157","1934","mousetracking operator preview effect","0","0","0","no","false","no","1680"
"neutral","undefined","1","undefined","undefined","white","no","legacy","legacy","legacy","0","relative","undefined","undefined","68","NA","0","0","0","0","0","0","0","84","84","0","15","0","no","04/29/19 12:27:34","A simple template for the mouse-tracking paradigm","yes","Experiment-FT.osexp","C:\Users\Kristen\Documents\opPreviewExperiment-master\procedure","no","mono","no","24","no","black","no","yes","1050","legacy","68","15","C:/Users/Kristen/Documents/opPreviewExperiment-master/procedure/subject-24.csv","legacy","Kafkaesque Koffka","3.2.6","mult","0","l","NA","NA","l","l","38952","NA","NA","14943","38952","2","1047","legacy","small","1024","2","48000","-16","experiment","5_3_mult_true.jpg","24","even","legacy","348101","NA","132441","NA","NA","1932","NA","1947","93488","348101","350117","16891","90157","1934","mousetracking operator preview effect","0","0","0","no","true","no","1680"
"neutral","undefined","1","undefined","undefined","white","no","legacy","legacy","legacy","0","relative","undefined","undefined","69","NA","0","0","0","0","0","0","0","85","85","0","15","0","no","04/29/19 12:27:34","A simple template for the mouse-tracking paradigm","yes","Experiment-FT.osexp","C:\Users\Kristen\Documents\opPreviewExperiment-master\procedure","no","mono","no","24","no","black","no","yes","1050","legacy","69","15","C:/Users/Kristen/Documents/opPreviewExperiment-master/procedure/subject-24.csv","legacy","Kafkaesque Koffka","3.2.6","add","0","l","NA","NA","l","l","38952","NA","NA","14943","38952","2","1129","legacy","small","1024","2","48000","-16","experiment","8_2_add_true.jpg","24","even","legacy","350138","NA","132441","NA","NA","1932","NA","1947","93488","350138","352243","16891","90157","1934","mousetracking operator preview effect","0","0","0","no","true","no","1680"
"neutral","undefined","1","undefined","undefined","white","no","legacy","legacy","legacy","0","relative","undefined","undefined","70","NA","0","0","0","0","0","0","0","86","86","0","15","0","no","04/29/19 12:27:34","A simple template for the mouse-tracking paradigm","yes","Experiment-FT.osexp","C:\Users\Kristen\Documents\opPreviewExperiment-master\procedure","no","mono","no","24","no","black","no","yes","1050","legacy","70","15","C:/Users/Kristen/Documents/opPreviewExperiment-master/procedure/subject-24.csv","legacy","Kafkaesque Koffka","3.2.6","mult","0","l","NA","NA","l","l","38952","NA","NA","14943","38952","2","972","legacy","small","1024","2","48000","-16","experiment","3_6_mult_true.jpg","24","even","legacy","352266","NA","132441","NA","NA","1932","NA","1947","93488","352266","354219","16891","90157","1934","mousetracking operator preview effect","0","0","0","no","true","no","1680"
"negative","undefined","1","undefined","undefined","white","no","legacy","legacy","legacy","0","relative","undefined","undefined","71","NA","0","0","0","0","0","0","0","87","87","0","15","0","no","04/29/19 12:27:34","A simple template for the mouse-tracking paradigm","yes","Experiment-FT.osexp","C:\Users\Kristen\Documents\opPreviewExperiment-master\procedure","no","mono","no","24","no","black","no","yes","1050","legacy","71","15","C:/Users/Kristen/Documents/opPreviewExperiment-master/procedure/subject-24.csv","legacy","Kafkaesque Koffka","3.2.6","add","0","a","NA","NA","l","l","38952","NA","NA","14943","38952","2","1110","legacy","small","1024","2","48000","-16","experiment","5_3_add_FI.jpg","24","even","legacy","354241","NA","132441","NA","NA","1932","NA","1947","93488","354241","356501","16891","90157","1934","mousetracking operator preview effect","0","0","0","no","false","no","1680"
"neutral","undefined","1","undefined","undefined","white","no","legacy","legacy","legacy","0","relative","undefined","undefined","72","NA","0","0","0","0","0","0","0","88","88","0","15","0","no","04/29/19 12:27:34","A simple template for the mouse-tracking paradigm","yes","Experiment-FT.osexp","C:\Users\Kristen\Documents\opPreviewExperiment-master\procedure","no","mono","no","24","no","black","no","yes","1050","legacy","72","15","C:/Users/Kristen/Documents/opPreviewExperiment-master/procedure/subject-24.csv","legacy","Kafkaesque Koffka","3.2.6","mult","0","l","NA","NA","l","l","38952","NA","NA","14943","38952","2","1024","legacy","large","1024","2","48000","-16","experiment","6_8_mult_true.jpg","24","even","legacy","356524","NA","132441","NA","NA","1932","NA","1947","93488","356524","358527","16891","90157","1934","mousetracking operator preview effect","0","0","0","no","true","no","1680"
"neutral","undefined","0","undefined","undefined","white","no","legacy","legacy","legacy","0","relative","undefined","undefined","73","NA","0","0","0","0","0","0","0","89","89","0","15","0","no","04/29/19 12:27:34","A simple template for the mouse-tracking paradigm","yes","Experiment-FT.osexp","C:\Users\Kristen\Documents\opPreviewExperiment-master\procedure","no","mono","no","24","no","black","no","yes","1050","legacy","73","15","C:/Users/Kristen/Documents/opPreviewExperiment-master/procedure/subject-24.csv","legacy","Kafkaesque Koffka","3.2.6","add","0","l","NA","NA","l","l","38952","NA","NA","14943","38952","2","3021","legacy","small","1024","2","48000","-16","experiment","8_2_add_FNI.jpg","24","even","legacy","358541","NA","132441","NA","NA","1932","NA","1947","93488","358541","363555","16891","90157","1934","mousetracking operator preview effect","0","0","0","no","false","no","1680"
"negative","undefined","1","undefined","undefined","white","no","legacy","legacy","legacy","0","relative","undefined","undefined","74","NA","0","0","0","0","0","0","0","90","90","0","15","0","no","04/29/19 12:27:34","A simple template for the mouse-tracking paradigm","yes","Experiment-FT.osexp","C:\Users\Kristen\Documents\opPreviewExperiment-master\procedure","no","mono","no","24","no","black","no","yes","1050","legacy","74","15","C:/Users/Kristen/Documents/opPreviewExperiment-master/procedure/subject-24.csv","legacy","Kafkaesque Koffka","3.2.6","mult","0","a","NA","NA","l","l","38952","NA","NA","14943","38952","2","1494","legacy","small","1024","2","48000","-16","experiment","3_6_mult_FNI.jpg","24","even","legacy","363590","NA","132441","NA","NA","1932","NA","1947","93488","363591","366236","16891","90157","1934","mousetracking operator preview effect","0","0","0","no","false","no","1680"
"neutral","undefined","1","undefined","undefined","white","no","legacy","legacy","legacy","0","relative","undefined","undefined","75","NA","0","0","0","0","0","0","0","91","91","0","15","0","no","04/29/19 12:27:34","A simple template for the mouse-tracking paradigm","yes","Experiment-FT.osexp","C:\Users\Kristen\Documents\opPreviewExperiment-master\procedure","no","mono","no","24","no","black","no","yes","1050","legacy","75","15","C:/Users/Kristen/Documents/opPreviewExperiment-master/procedure/subject-24.csv","legacy","Kafkaesque Koffka","3.2.6","mult","0","l","NA","NA","l","l","38952","NA","NA","14943","38952","2","1161","legacy","large","1024","2","48000","-16","experiment","9_7_mult_true.jpg","24","even","legacy","366261","NA","132441","NA","NA","1932","NA","1947","93488","366261","368398","16891","90157","1934","mousetracking operator preview effect","0","0","0","no","true","no","1680"
"neutral","undefined","1","undefined","undefined","white","no","legacy","legacy","legacy","0","relative","undefined","undefined","76","NA","0","0","0","0","0","0","0","92","92","0","15","0","no","04/29/19 12:27:34","A simple template for the mouse-tracking paradigm","yes","Experiment-FT.osexp","C:\Users\Kristen\Documents\opPreviewExperiment-master\procedure","no","mono","no","24","no","black","no","yes","1050","legacy","76","15","C:/Users/Kristen/Documents/opPreviewExperiment-master/procedure/subject-24.csv","legacy","Kafkaesque Koffka","3.2.6","add","0","l","NA","NA","l","l","38952","NA","NA","14943","38952","2","1077","legacy","small","1024","2","48000","-16","experiment","8_2_add_true.jpg","24","even","legacy","368426","NA","132441","NA","NA","1932","NA","1947","93488","368426","370479","16891","90157","1934","mousetracking operator preview effect","0","0","0","no","true","no","1680"
"neutral","undefined","1","undefined","undefined","white","no","legacy","legacy","legacy","0","relative","undefined","undefined","77","NA","0","0","0","0","0","0","0","93","93","0","15","0","no","04/29/19 12:27:34","A simple template for the mouse-tracking paradigm","yes","Experiment-FT.osexp","C:\Users\Kristen\Documents\opPreviewExperiment-master\procedure","no","mono","no","24","no","black","no","yes","1050","legacy","77","15","C:/Users/Kristen/Documents/opPreviewExperiment-master/procedure/subject-24.csv","legacy","Kafkaesque Koffka","3.2.6","mult","0","a","NA","NA","l","l","38952","NA","NA","14943","38952","2","1280","legacy","small","1024","2","48000","-16","experiment","2_7_mult_FNI.jpg","24","even","legacy","370510","NA","132441","NA","NA","1932","NA","1947","93488","370510","372770","16891","90157","1934","mousetracking operator preview effect","0","0","0","no","false","no","1680"
"negative","undefined","1","undefined","undefined","white","no","legacy","legacy","legacy","0","relative","undefined","undefined","78","NA","0","0","0","0","0","0","0","94","94","0","15","0","no","04/29/19 12:27:34","A simple template for the mouse-tracking paradigm","yes","Experiment-FT.osexp","C:\Users\Kristen\Documents\opPreviewExperiment-master\procedure","no","mono","no","24","no","black","no","yes","1050","legacy","78","15","C:/Users/Kristen/Documents/opPreviewExperiment-master/procedure/subject-24.csv","legacy","Kafkaesque Koffka","3.2.6","mult","0","l","NA","NA","l","l","38952","NA","NA","14943","38952","2","1312","legacy","large","1024","2","48000","-16","experiment","6_8_mult_true.jpg","24","even","legacy","372797","NA","132441","NA","NA","1932","NA","1947","93488","372797","375259","16891","90157","1934","mousetracking operator preview effect","0","0","0","no","true","no","1680"
"neutral","undefined","1","undefined","undefined","white","no","legacy","legacy","legacy","0","relative","undefined","undefined","79","NA","0","0","0","0","0","0","0","95","95","0","15","0","no","04/29/19 12:27:34","A simple template for the mouse-tracking paradigm","yes","Experiment-FT.osexp","C:\Users\Kristen\Documents\opPreviewExperiment-master\procedure","no","mono","no","24","no","black","no","yes","1050","legacy","79","15","C:/Users/Kristen/Documents/opPreviewExperiment-master/procedure/subject-24.csv","legacy","Kafkaesque Koffka","3.2.6","mult","0","l","NA","NA","l","l","38952","NA","NA","14943","38952","2","2192","legacy","large","1024","2","48000","-16","experiment","4_9_mult_true.jpg","24","even","legacy","375286","NA","132441","NA","NA","1932","NA","1947","93488","375286","378444","16891","90157","1934","mousetracking operator preview effect","0","0","0","no","true","no","1680"
"negative","undefined","1","undefined","undefined","white","no","legacy","legacy","legacy","0","relative","undefined","undefined","80","NA","0","0","0","0","0","0","0","96","96","0","15","0","no","04/29/19 12:27:34","A simple template for the mouse-tracking paradigm","yes","Experiment-FT.osexp","C:\Users\Kristen\Documents\opPreviewExperiment-master\procedure","no","mono","no","24","no","black","no","yes","1050","legacy","80","15","C:/Users/Kristen/Documents/opPreviewExperiment-master/procedure/subject-24.csv","legacy","Kafkaesque Koffka","3.2.6","add","0","l","NA","NA","l","l","38952","NA","NA","14943","38952","2","1473","legacy","large","1024","2","48000","-16","experiment","9_7_add_true.jpg","24","even","legacy","378466","NA","132441","NA","NA","1932","NA","1947","93488","378467","381085","16891","90157","1934","mousetracking operator preview effect","0","0","0","no","true","no","1680"
"negative","undefined","1","undefined","undefined","white","no","legacy","legacy","legacy","0","relative","undefined","undefined","81","NA","0","0","0","0","0","0","0","97","97","0","15","0","no","04/29/19 12:27:34","A simple template for the mouse-tracking paradigm","yes","Experiment-FT.osexp","C:\Users\Kristen\Documents\opPreviewExperiment-master\procedure","no","mono","no","24","no","black","no","yes","1050","legacy","81","15","C:/Users/Kristen/Documents/opPreviewExperiment-master/procedure/subject-24.csv","legacy","Kafkaesque Koffka","3.2.6","add","0","l","NA","NA","l","l","38952","NA","NA","14943","38952","2","710","legacy","large","1024","2","48000","-16","experiment","8_4_add_true.jpg","24","even","legacy","381112","NA","132441","NA","NA","1932","NA","1947","93488","381112","382972","16891","90157","1934","mousetracking operator preview effect","0","0","0","no","true","no","1680"
"neutral","undefined","1","undefined","undefined","white","no","legacy","legacy","legacy","0","relative","undefined","undefined","82","NA","0","0","0","0","0","0","0","98","98","0","15","0","no","04/29/19 12:27:34","A simple template for the mouse-tracking paradigm","yes","Experiment-FT.osexp","C:\Users\Kristen\Documents\opPreviewExperiment-master\procedure","no","mono","no","24","no","black","no","yes","1050","legacy","82","15","C:/Users/Kristen/Documents/opPreviewExperiment-master/procedure/subject-24.csv","legacy","Kafkaesque Koffka","3.2.6","mult","0","a","NA","NA","l","l","38952","NA","NA","14943","38952","2","1256","legacy","small","1024","2","48000","-16","experiment","8_2_mult_FNI.jpg","24","even","legacy","383000","NA","132441","NA","NA","1932","NA","1947","93488","383000","385239","16891","90157","1934","mousetracking operator preview effect","0","0","0","no","false","no","1680"
"neutral","undefined","1","undefined","undefined","white","no","legacy","legacy","legacy","0","relative","undefined","undefined","83","NA","0","0","0","0","0","0","0","99","99","0","15","0","no","04/29/19 12:27:34","A simple template for the mouse-tracking paradigm","yes","Experiment-FT.osexp","C:\Users\Kristen\Documents\opPreviewExperiment-master\procedure","no","mono","no","24","no","black","no","yes","1050","legacy","83","15","C:/Users/Kristen/Documents/opPreviewExperiment-master/procedure/subject-24.csv","legacy","Kafkaesque Koffka","3.2.6","add","0","l","NA","NA","l","l","38952","NA","NA","14943","38952","2","3073","legacy","large","1024","2","48000","-16","experiment","4_9_add_true.jpg","24","even","legacy","385265","NA","132441","NA","NA","1932","NA","1947","93488","385265","389313","16891","90157","1934","mousetracking operator preview effect","0","0","0","no","true","no","1680"
"neutral","undefined","1","undefined","undefined","white","no","legacy","legacy","legacy","0","relative","undefined","undefined","84","NA","0","0","0","0","0","0","0","100","100","0","15","0","no","04/29/19 12:27:34","A simple template for the mouse-tracking paradigm","yes","Experiment-FT.osexp","C:\Users\Kristen\Documents\opPreviewExperiment-master\procedure","no","mono","no","24","no","black","no","yes","1050","legacy","84","15","C:/Users/Kristen/Documents/opPreviewExperiment-master/procedure/subject-24.csv","legacy","Kafkaesque Koffka","3.2.6","mult","0","l","NA","NA","l","l","38952","NA","NA","14943","38952","2","1312","legacy","large","1024","2","48000","-16","experiment","9_7_mult_true.jpg","24","even","legacy","389335","NA","132441","NA","NA","1932","NA","1947","93488","389335","391623","16891","90157","1934","mousetracking operator preview effect","0","0","0","no","true","no","1680"
"neutral","undefined","1","undefined","undefined","white","no","legacy","legacy","legacy","0","relative","undefined","undefined","85","NA","0","0","0","0","0","0","0","101","101","0","15","0","no","04/29/19 12:27:34","A simple template for the mouse-tracking paradigm","yes","Experiment-FT.osexp","C:\Users\Kristen\Documents\opPreviewExperiment-master\procedure","no","mono","no","24","no","black","no","yes","1050","legacy","85","15","C:/Users/Kristen/Documents/opPreviewExperiment-master/procedure/subject-24.csv","legacy","Kafkaesque Koffka","3.2.6","mult","0","a","NA","NA","l","l","38952","NA","NA","14943","38952","2","1349","legacy","small","1024","2","48000","-16","experiment","2_7_mult_FI.jpg","24","even","legacy","391643","NA","132441","NA","NA","1932","NA","1947","93488","391643","393966","16891","90157","1934","mousetracking operator preview effect","0","0","0","no","false","no","1680"
"negative","undefined","1","undefined","undefined","white","no","legacy","legacy","legacy","0","relative","undefined","undefined","86","NA","0","0","0","0","0","0","0","102","102","0","15","0","no","04/29/19 12:27:34","A simple template for the mouse-tracking paradigm","yes","Experiment-FT.osexp","C:\Users\Kristen\Documents\opPreviewExperiment-master\procedure","no","mono","no","24","no","black","no","yes","1050","legacy","86","15","C:/Users/Kristen/Documents/opPreviewExperiment-master/procedure/subject-24.csv","legacy","Kafkaesque Koffka","3.2.6","mult","0","a","NA","NA","l","l","38952","NA","NA","14943","38952","2","1576","legacy","large","1024","2","48000","-16","experiment","6_8_mult_FI.jpg","24","even","legacy","393980","NA","132441","NA","NA","1932","NA","1947","93488","393980","396680","16891","90157","1934","mousetracking operator preview effect","0","0","0","no","false","no","1680"
"neutral","undefined","1","undefined","undefined","white","no","legacy","legacy","legacy","0","relative","undefined","undefined","87","NA","0","0","0","0","0","0","0","103","103","0","15","0","no","04/29/19 12:27:34","A simple template for the mouse-tracking paradigm","yes","Experiment-FT.osexp","C:\Users\Kristen\Documents\opPreviewExperiment-master\procedure","no","mono","no","24","no","black","no","yes","1050","legacy","87","15","C:/Users/Kristen/Documents/opPreviewExperiment-master/procedure/subject-24.csv","legacy","Kafkaesque Koffka","3.2.6","add","0","a","NA","NA","l","l","38952","NA","NA","14943","38952","2","2921","legacy","large","1024","2","48000","-16","experiment","6_8_add_FNI.jpg","24","even","legacy","396701","NA","132441","NA","NA","1932","NA","1947","93488","396701","400597","16891","90157","1934","mousetracking operator preview effect","0","0","0","no","false","no","1680"
"neutral","undefined","1","undefined","undefined","white","no","legacy","legacy","legacy","0","relative","undefined","undefined","88","NA","0","0","0","0","0","0","0","104","104","0","15","0","no","04/29/19 12:27:34","A simple template for the mouse-tracking paradigm","yes","Experiment-FT.osexp","C:\Users\Kristen\Documents\opPreviewExperiment-master\procedure","no","mono","no","24","no","black","no","yes","1050","legacy","88","15","C:/Users/Kristen/Documents/opPreviewExperiment-master/procedure/subject-24.csv","legacy","Kafkaesque Koffka","3.2.6","add","0","l","NA","NA","l","l","38952","NA","NA","14943","38952","2","1348","legacy","large","1024","2","48000","-16","experiment","6_8_add_true.jpg","24","even","legacy","400620","NA","132441","NA","NA","1932","NA","1947","93488","400620","402942","16891","90157","1934","mousetracking operator preview effect","0","0","0","no","true","no","1680"
"negative","undefined","1","undefined","undefined","white","no","legacy","legacy","legacy","0","relative","undefined","undefined","89","NA","0","0","0","0","0","0","0","105","105","0","15","0","no","04/29/19 12:27:34","A simple template for the mouse-tracking paradigm","yes","Experiment-FT.osexp","C:\Users\Kristen\Documents\opPreviewExperiment-master\procedure","no","mono","no","24","no","black","no","yes","1050","legacy","89","15","C:/Users/Kristen/Documents/opPreviewExperiment-master/procedure/subject-24.csv","legacy","Kafkaesque Koffka","3.2.6","mult","0","a","NA","NA","l","l","38952","NA","NA","14943","38952","2","3764","legacy","large","1024","2","48000","-16","experiment","9_7_mult_FNI.jpg","24","even","legacy","402972","NA","132441","NA","NA","1932","NA","1947","93488","402972","407881","16891","90157","1934","mousetracking operator preview effect","0","0","0","no","false","no","1680"
"negative","undefined","1","undefined","undefined","white","no","legacy","legacy","legacy","0","relative","undefined","undefined","90","NA","0","0","0","0","0","0","0","106","106","0","15","0","no","04/29/19 12:27:34","A simple template for the mouse-tracking paradigm","yes","Experiment-FT.osexp","C:\Users\Kristen\Documents\opPreviewExperiment-master\procedure","no","mono","no","24","no","black","no","yes","1050","legacy","90","15","C:/Users/Kristen/Documents/opPreviewExperiment-master/procedure/subject-24.csv","legacy","Kafkaesque Koffka","3.2.6","mult","0","l","NA","NA","l","l","38952","NA","NA","14943","38952","2","1236","legacy","large","1024","2","48000","-16","experiment","8_4_mult_true.jpg","24","even","legacy","407904","NA","132441","NA","NA","1932","NA","1947","93488","407904","410287","16891","90157","1934","mousetracking operator preview effect","0","0","0","no","true","no","1680"
"neutral","undefined","1","undefined","undefined","white","no","legacy","legacy","legacy","0","relative","undefined","undefined","91","NA","0","0","0","0","0","0","0","107","107","0","15","0","no","04/29/19 12:27:34","A simple template for the mouse-tracking paradigm","yes","Experiment-FT.osexp","C:\Users\Kristen\Documents\opPreviewExperiment-master\procedure","no","mono","no","24","no","black","no","yes","1050","legacy","91","15","C:/Users/Kristen/Documents/opPreviewExperiment-master/procedure/subject-24.csv","legacy","Kafkaesque Koffka","3.2.6","mult","0","l","NA","NA","l","l","38952","NA","NA","14943","38952","2","877","legacy","large","1024","2","48000","-16","experiment","4_9_mult_true.jpg","24","even","legacy","410307","NA","132441","NA","NA","1932","NA","1947","93488","410307","412164","16891","90157","1934","mousetracking operator preview effect","0","0","0","no","true","no","1680"
"neutral","undefined","1","undefined","undefined","white","no","legacy","legacy","legacy","0","relative","undefined","undefined","92","NA","0","0","0","0","0","0","0","108","108","0","15","0","no","04/29/19 12:27:34","A simple template for the mouse-tracking paradigm","yes","Experiment-FT.osexp","C:\Users\Kristen\Documents\opPreviewExperiment-master\procedure","no","mono","no","24","no","black","no","yes","1050","legacy","92","15","C:/Users/Kristen/Documents/opPreviewExperiment-master/procedure/subject-24.csv","legacy","Kafkaesque Koffka","3.2.6","add","0","l","NA","NA","l","l","38952","NA","NA","14943","38952","2","1984","legacy","large","1024","2","48000","-16","experiment","4_9_add_true.jpg","24","even","legacy","412185","NA","132441","NA","NA","1932","NA","1947","93488","412185","415148","16891","90157","1934","mousetracking operator preview effect","0","0","0","no","true","no","1680"
