"SOAcondition","acc","accuracy","average_response_time","avg_rt","background","bidi","canvas_backend","clock_backend","color_backend","compensation","coordinates","correct","correct_instruction1","count_block1_sequence","count_block2_sequence","count_block_1","count_block_2","count_breakScreen","count_experiment","count_finish","count_instruction1","count_instruction2","count_keyboard_script","count_logger","count_practiceBlock","count_practice_sequence","count_setup_script","custom_cursor","datetime","description","disable_garbage_collection","experiment_file","experiment_path","font_bold","font_family","font_italic","font_size","font_underline","foreground","form_clicks","fullscreen","height","keyboard_backend","live_row","live_row_practiceBlock","logfile","mouse_backend","opensesame_codename","opensesame_version","operation","repeat_cycle","response","response_breakScreen","response_finish","response_instruction1","response_instruction2","response_time","response_time_breakScreen","response_time_finish","response_time_instruction1","response_time_instruction2","round_decimals","rt","sampler_backend","size","sound_buf_size","sound_channels","sound_freq","sound_sample_size","start","stimulus","subject_nr","subject_parity","synth_backend","time_block1_sequence","time_block2_sequence","time_block_1","time_block_2","time_breakScreen","time_experiment","time_finish","time_instruction1","time_instruction2","time_keyboard_script","time_logger","time_practiceBlock","time_practice_sequence","time_setup_script","title","total_correct","total_response_time","total_responses","transparent_variables","truth","uniform_coordinates","width"
"negative","undefined","1","undefined","undefined","white","no","legacy","legacy","legacy","0","relative","undefined","undefined","NA","NA","0","0","0","0","0","0","0","0","0","0","0","0","no","03/31/19 19:05:54","A simple template for the mouse-tracking paradigm","yes","Experiment-FT.osexp","C:\Users\Kristen\Documents\opPreviewExperiment-master\procedure","no","mono","no","24","no","black","no","yes","1050","legacy","0","0","C:/Users/Kristen/Documents/opPreviewExperiment-master/procedure/subject-12.csv","legacy","Kafkaesque Koffka","3.2.6","add","0","l","NA","NA","l","NA","55652","NA","NA","55652","NA","2","2919","legacy","NA","1024","2","48000","-16","experiment","0_3_add_T.jpg","12","even","legacy","NA","NA","NA","NA","NA","1846","NA","1859","NA","57515","61588","57512","57515","1847","mousetracking operator preview effect","0","0","0","no","true","no","1680"
"negative","undefined","1","undefined","undefined","white","no","legacy","legacy","legacy","0","relative","undefined","undefined","NA","NA","0","0","0","0","0","0","0","1","1","0","1","0","no","03/31/19 19:05:54","A simple template for the mouse-tracking paradigm","yes","Experiment-FT.osexp","C:\Users\Kristen\Documents\opPreviewExperiment-master\procedure","no","mono","no","24","no","black","no","yes","1050","legacy","1","1","C:/Users/Kristen/Documents/opPreviewExperiment-master/procedure/subject-12.csv","legacy","Kafkaesque Koffka","3.2.6","mult","0","l","NA","NA","l","NA","55652","NA","NA","55652","NA","2","2529","legacy","NA","1024","2","48000","-16","experiment","0_3_mult_T.jpg","12","even","legacy","NA","NA","NA","NA","NA","1846","NA","1859","NA","61614","65257","57512","61614","1847","mousetracking operator preview effect","0","0","0","no","true","no","1680"
"negative","undefined","1","undefined","undefined","white","no","legacy","legacy","legacy","0","relative","undefined","undefined","NA","NA","0","0","0","0","0","0","0","2","2","0","2","0","no","03/31/19 19:05:54","A simple template for the mouse-tracking paradigm","yes","Experiment-FT.osexp","C:\Users\Kristen\Documents\opPreviewExperiment-master\procedure","no","mono","no","24","no","black","no","yes","1050","legacy","2","2","C:/Users/Kristen/Documents/opPreviewExperiment-master/procedure/subject-12.csv","legacy","Kafkaesque Koffka","3.2.6","mult","0","a","NA","NA","l","NA","55652","NA","NA","55652","NA","2","2536","legacy","NA","1024","2","48000","-16","experiment","1_4_mult_F.jpg","12","even","legacy","NA","NA","NA","NA","NA","1846","NA","1859","NA","65272","68950","57512","65271","1847","mousetracking operator preview effect","0","0","0","no","false","no","1680"
"negative","undefined","1","undefined","undefined","white","no","legacy","legacy","legacy","0","relative","undefined","undefined","NA","NA","0","0","0","0","0","0","0","3","3","0","3","0","no","03/31/19 19:05:54","A simple template for the mouse-tracking paradigm","yes","Experiment-FT.osexp","C:\Users\Kristen\Documents\opPreviewExperiment-master\procedure","no","mono","no","24","no","black","no","yes","1050","legacy","3","3","C:/Users/Kristen/Documents/opPreviewExperiment-master/procedure/subject-12.csv","legacy","Kafkaesque Koffka","3.2.6","add","0","a","NA","NA","l","NA","55652","NA","NA","55652","NA","2","1606","legacy","NA","1024","2","48000","-16","experiment","1_4_add_F.jpg","12","even","legacy","NA","NA","NA","NA","NA","1846","NA","1859","NA","68970","71722","57512","68970","1847","mousetracking operator preview effect","0","0","0","no","false","no","1680"
"negative","undefined","1","undefined","undefined","white","no","legacy","legacy","legacy","0","relative","undefined","undefined","NA","NA","0","0","0","0","0","0","0","4","4","0","4","0","no","03/31/19 19:05:54","A simple template for the mouse-tracking paradigm","yes","Experiment-FT.osexp","C:\Users\Kristen\Documents\opPreviewExperiment-master\procedure","no","mono","no","24","no","black","no","yes","1050","legacy","4","4","C:/Users/Kristen/Documents/opPreviewExperiment-master/procedure/subject-12.csv","legacy","Kafkaesque Koffka","3.2.6","mult","0","l","NA","NA","l","NA","55652","NA","NA","55652","NA","2","2078","legacy","NA","1024","2","48000","-16","experiment","1_4_mult_T.jpg","12","even","legacy","NA","NA","NA","NA","NA","1846","NA","1859","NA","71758","74965","57512","71758","1847","mousetracking operator preview effect","0","0","0","no","true","no","1680"
"neutral","undefined","1","undefined","undefined","white","no","legacy","legacy","legacy","0","relative","undefined","undefined","NA","NA","0","0","0","0","0","0","0","5","5","0","5","0","no","03/31/19 19:05:54","A simple template for the mouse-tracking paradigm","yes","Experiment-FT.osexp","C:\Users\Kristen\Documents\opPreviewExperiment-master\procedure","no","mono","no","24","no","black","no","yes","1050","legacy","5","5","C:/Users/Kristen/Documents/opPreviewExperiment-master/procedure/subject-12.csv","legacy","Kafkaesque Koffka","3.2.6","mult","0","l","NA","NA","l","NA","55652","NA","NA","55652","NA","2","2224","legacy","NA","1024","2","48000","-16","experiment","0_3_mult_T.jpg","12","even","legacy","NA","NA","NA","NA","NA","1846","NA","1859","NA","74986","78185","57512","74986","1847","mousetracking operator preview effect","0","0","0","no","true","no","1680"
"neutral","undefined","1","undefined","undefined","white","no","legacy","legacy","legacy","0","relative","undefined","undefined","NA","NA","0","0","0","0","0","0","0","6","6","0","6","0","no","03/31/19 19:05:54","A simple template for the mouse-tracking paradigm","yes","Experiment-FT.osexp","C:\Users\Kristen\Documents\opPreviewExperiment-master\procedure","no","mono","no","24","no","black","no","yes","1050","legacy","6","6","C:/Users/Kristen/Documents/opPreviewExperiment-master/procedure/subject-12.csv","legacy","Kafkaesque Koffka","3.2.6","add","0","l","NA","NA","l","NA","55652","NA","NA","55652","NA","2","2402","legacy","NA","1024","2","48000","-16","experiment","0_3_add_T.jpg","12","even","legacy","NA","NA","NA","NA","NA","1846","NA","1859","NA","78206","81583","57512","78206","1847","mousetracking operator preview effect","0","0","0","no","true","no","1680"
"neutral","undefined","1","undefined","undefined","white","no","legacy","legacy","legacy","0","relative","undefined","undefined","NA","NA","0","0","0","0","0","0","0","7","7","0","7","0","no","03/31/19 19:05:54","A simple template for the mouse-tracking paradigm","yes","Experiment-FT.osexp","C:\Users\Kristen\Documents\opPreviewExperiment-master\procedure","no","mono","no","24","no","black","no","yes","1050","legacy","7","7","C:/Users/Kristen/Documents/opPreviewExperiment-master/procedure/subject-12.csv","legacy","Kafkaesque Koffka","3.2.6","mult","0","a","NA","NA","l","NA","55652","NA","NA","55652","NA","2","2214","legacy","NA","1024","2","48000","-16","experiment","1_4_mult_F.jpg","12","even","legacy","NA","NA","NA","NA","NA","1846","NA","1859","NA","81604","84790","57512","81604","1847","mousetracking operator preview effect","0","0","0","no","false","no","1680"
"negative","undefined","1","undefined","undefined","white","no","legacy","legacy","legacy","0","relative","undefined","undefined","NA","NA","0","0","0","0","0","0","0","8","8","0","8","0","no","03/31/19 19:05:54","A simple template for the mouse-tracking paradigm","yes","Experiment-FT.osexp","C:\Users\Kristen\Documents\opPreviewExperiment-master\procedure","no","mono","no","24","no","black","no","yes","1050","legacy","8","8","C:/Users/Kristen/Documents/opPreviewExperiment-master/procedure/subject-12.csv","legacy","Kafkaesque Koffka","3.2.6","add","0","l","NA","NA","l","NA","55652","NA","NA","55652","NA","2","2231","legacy","NA","1024","2","48000","-16","experiment","1_4_add_T.jpg","12","even","legacy","NA","NA","NA","NA","NA","1846","NA","1859","NA","84813","88185","57512","84813","1847","mousetracking operator preview effect","0","0","0","no","true","no","1680"
"neutral","undefined","1","undefined","undefined","white","no","legacy","legacy","legacy","0","relative","undefined","undefined","NA","NA","0","0","0","0","0","0","0","9","9","0","9","0","no","03/31/19 19:05:54","A simple template for the mouse-tracking paradigm","yes","Experiment-FT.osexp","C:\Users\Kristen\Documents\opPreviewExperiment-master\procedure","no","mono","no","24","no","black","no","yes","1050","legacy","9","9","C:/Users/Kristen/Documents/opPreviewExperiment-master/procedure/subject-12.csv","legacy","Kafkaesque Koffka","3.2.6","add","0","l","NA","NA","l","NA","55652","NA","NA","55652","NA","2","1885","legacy","NA","1024","2","48000","-16","experiment","1_4_add_T.jpg","12","even","legacy","NA","NA","NA","NA","NA","1846","NA","1859","NA","88206","91065","57512","88206","1847","mousetracking operator preview effect","0","0","0","no","true","no","1680"
"neutral","undefined","1","undefined","undefined","white","no","legacy","legacy","legacy","0","relative","undefined","undefined","NA","NA","0","0","0","0","0","0","0","10","10","0","10","0","no","03/31/19 19:05:54","A simple template for the mouse-tracking paradigm","yes","Experiment-FT.osexp","C:\Users\Kristen\Documents\opPreviewExperiment-master\procedure","no","mono","no","24","no","black","no","yes","1050","legacy","10","10","C:/Users/Kristen/Documents/opPreviewExperiment-master/procedure/subject-12.csv","legacy","Kafkaesque Koffka","3.2.6","mult","0","l","NA","NA","l","NA","55652","NA","NA","55652","NA","2","2237","legacy","NA","1024","2","48000","-16","experiment","1_4_mult_T.jpg","12","even","legacy","NA","NA","NA","NA","NA","1846","NA","1859","NA","91086","94302","57512","91086","1847","mousetracking operator preview effect","0","0","0","no","true","no","1680"
"neutral","undefined","1","undefined","undefined","white","no","legacy","legacy","legacy","0","relative","undefined","undefined","NA","NA","0","0","0","0","0","0","0","11","11","0","11","0","no","03/31/19 19:05:54","A simple template for the mouse-tracking paradigm","yes","Experiment-FT.osexp","C:\Users\Kristen\Documents\opPreviewExperiment-master\procedure","no","mono","no","24","no","black","no","yes","1050","legacy","11","11","C:/Users/Kristen/Documents/opPreviewExperiment-master/procedure/subject-12.csv","legacy","Kafkaesque Koffka","3.2.6","add","0","a","NA","NA","l","NA","55652","NA","NA","55652","NA","2","1347","legacy","NA","1024","2","48000","-16","experiment","1_4_add_F.jpg","12","even","legacy","NA","NA","NA","NA","NA","1846","NA","1859","NA","94325","96646","57512","94325","1847","mousetracking operator preview effect","0","0","0","no","false","no","1680"
"negative","undefined","1","undefined","undefined","white","no","legacy","legacy","legacy","0","relative","undefined","undefined","NA","NA","0","0","0","0","0","0","0","12","12","0","12","0","no","03/31/19 19:05:54","A simple template for the mouse-tracking paradigm","yes","Experiment-FT.osexp","C:\Users\Kristen\Documents\opPreviewExperiment-master\procedure","no","mono","no","24","no","black","no","yes","1050","legacy","12","12","C:/Users/Kristen/Documents/opPreviewExperiment-master/procedure/subject-12.csv","legacy","Kafkaesque Koffka","3.2.6","add","0","a","NA","NA","l","NA","55652","NA","NA","55652","NA","2","2214","legacy","NA","1024","2","48000","-16","experiment","0_3_add_F.jpg","12","even","legacy","NA","NA","NA","NA","NA","1846","NA","1859","NA","96659","100024","57512","96659","1847","mousetracking operator preview effect","0","0","0","no","false","no","1680"
"neutral","undefined","1","undefined","undefined","white","no","legacy","legacy","legacy","0","relative","undefined","undefined","NA","NA","0","0","0","0","0","0","0","13","13","0","13","0","no","03/31/19 19:05:54","A simple template for the mouse-tracking paradigm","yes","Experiment-FT.osexp","C:\Users\Kristen\Documents\opPreviewExperiment-master\procedure","no","mono","no","24","no","black","no","yes","1050","legacy","13","13","C:/Users/Kristen/Documents/opPreviewExperiment-master/procedure/subject-12.csv","legacy","Kafkaesque Koffka","3.2.6","mult","0","a","NA","NA","l","NA","55652","NA","NA","55652","NA","2","2503","legacy","NA","1024","2","48000","-16","experiment","0_3_mult_F.jpg","12","even","legacy","NA","NA","NA","NA","NA","1846","NA","1859","NA","100046","103523","57512","100045","1847","mousetracking operator preview effect","0","0","0","no","false","no","1680"
"neutral","undefined","1","undefined","undefined","white","no","legacy","legacy","legacy","0","relative","undefined","undefined","NA","NA","0","0","0","0","0","0","0","14","14","0","14","0","no","03/31/19 19:05:54","A simple template for the mouse-tracking paradigm","yes","Experiment-FT.osexp","C:\Users\Kristen\Documents\opPreviewExperiment-master\procedure","no","mono","no","24","no","black","no","yes","1050","legacy","14","14","C:/Users/Kristen/Documents/opPreviewExperiment-master/procedure/subject-12.csv","legacy","Kafkaesque Koffka","3.2.6","add","0","a","NA","NA","l","NA","55652","NA","NA","55652","NA","2","1626","legacy","NA","1024","2","48000","-16","experiment","0_3_add_F.jpg","12","even","legacy","NA","NA","NA","NA","NA","1846","NA","1859","NA","103543","106130","57512","103543","1847","mousetracking operator preview effect","0","0","0","no","false","no","1680"
"negative","undefined","1","undefined","undefined","white","no","legacy","legacy","legacy","0","relative","undefined","undefined","NA","NA","0","0","0","0","0","0","0","15","15","0","15","0","no","03/31/19 19:05:54","A simple template for the mouse-tracking paradigm","yes","Experiment-FT.osexp","C:\Users\Kristen\Documents\opPreviewExperiment-master\procedure","no","mono","no","24","no","black","no","yes","1050","legacy","15","15","C:/Users/Kristen/Documents/opPreviewExperiment-master/procedure/subject-12.csv","legacy","Kafkaesque Koffka","3.2.6","mult","0","a","NA","NA","l","NA","55652","NA","NA","55652","NA","2","1526","legacy","NA","1024","2","48000","-16","experiment","0_3_mult_F.jpg","12","even","legacy","NA","NA","NA","NA","NA","1846","NA","1859","NA","106161","108833","57512","106161","1847","mousetracking operator preview effect","0","0","0","no","false","no","1680"
"neutral","undefined","0","undefined","undefined","white","no","legacy","legacy","legacy","0","relative","undefined","undefined","0","NA","0","0","0","0","0","0","0","16","16","0","15","0","no","03/31/19 19:05:54","A simple template for the mouse-tracking paradigm","yes","Experiment-FT.osexp","C:\Users\Kristen\Documents\opPreviewExperiment-master\procedure","no","mono","no","24","no","black","no","yes","1050","legacy","0","15","C:/Users/Kristen/Documents/opPreviewExperiment-master/procedure/subject-12.csv","legacy","Kafkaesque Koffka","3.2.6","mult","0","a","NA","NA","l","l","18676","NA","NA","55652","18676","2","12752","legacy","large","1024","2","48000","-16","experiment","9_7_mult_true.jpg","12","even","legacy","127539","NA","127535","NA","NA","1846","NA","1859","108859","127539","142280","57512","106161","1847","mousetracking operator preview effect","0","0","0","no","true","no","1680"
"neutral","undefined","1","undefined","undefined","white","no","legacy","legacy","legacy","0","relative","undefined","undefined","1","NA","0","0","0","0","0","0","0","17","17","0","15","0","no","03/31/19 19:05:54","A simple template for the mouse-tracking paradigm","yes","Experiment-FT.osexp","C:\Users\Kristen\Documents\opPreviewExperiment-master\procedure","no","mono","no","24","no","black","no","yes","1050","legacy","1","15","C:/Users/Kristen/Documents/opPreviewExperiment-master/procedure/subject-12.csv","legacy","Kafkaesque Koffka","3.2.6","mult","0","a","NA","NA","l","l","18676","NA","NA","55652","18676","2","1813","legacy","small","1024","2","48000","-16","experiment","8_2_mult_FI.jpg","12","even","legacy","142319","NA","127535","NA","NA","1846","NA","1859","108859","142320","145111","57512","106161","1847","mousetracking operator preview effect","0","0","0","no","false","no","1680"
"negative","undefined","1","undefined","undefined","white","no","legacy","legacy","legacy","0","relative","undefined","undefined","2","NA","0","0","0","0","0","0","0","18","18","0","15","0","no","03/31/19 19:05:54","A simple template for the mouse-tracking paradigm","yes","Experiment-FT.osexp","C:\Users\Kristen\Documents\opPreviewExperiment-master\procedure","no","mono","no","24","no","black","no","yes","1050","legacy","2","15","C:/Users/Kristen/Documents/opPreviewExperiment-master/procedure/subject-12.csv","legacy","Kafkaesque Koffka","3.2.6","add","0","a","NA","NA","l","l","18676","NA","NA","55652","18676","2","2725","legacy","large","1024","2","48000","-16","experiment","8_4_add_FI.jpg","12","even","legacy","145140","NA","127535","NA","NA","1846","NA","1859","108859","145140","149012","57512","106161","1847","mousetracking operator preview effect","0","0","0","no","false","no","1680"
"negative","undefined","1","undefined","undefined","white","no","legacy","legacy","legacy","0","relative","undefined","undefined","3","NA","0","0","0","0","0","0","0","19","19","0","15","0","no","03/31/19 19:05:54","A simple template for the mouse-tracking paradigm","yes","Experiment-FT.osexp","C:\Users\Kristen\Documents\opPreviewExperiment-master\procedure","no","mono","no","24","no","black","no","yes","1050","legacy","3","15","C:/Users/Kristen/Documents/opPreviewExperiment-master/procedure/subject-12.csv","legacy","Kafkaesque Koffka","3.2.6","add","0","a","NA","NA","l","l","18676","NA","NA","55652","18676","2","2403","legacy","small","1024","2","48000","-16","experiment","3_6_add_FI.jpg","12","even","legacy","149037","NA","127535","NA","NA","1846","NA","1859","108859","149037","152583","57512","106161","1847","mousetracking operator preview effect","0","0","0","no","false","no","1680"
"negative","undefined","1","undefined","undefined","white","no","legacy","legacy","legacy","0","relative","undefined","undefined","4","NA","0","0","0","0","0","0","0","20","20","0","15","0","no","03/31/19 19:05:54","A simple template for the mouse-tracking paradigm","yes","Experiment-FT.osexp","C:\Users\Kristen\Documents\opPreviewExperiment-master\procedure","no","mono","no","24","no","black","no","yes","1050","legacy","4","15","C:/Users/Kristen/Documents/opPreviewExperiment-master/procedure/subject-12.csv","legacy","Kafkaesque Koffka","3.2.6","add","0","a","NA","NA","l","l","18676","NA","NA","55652","18676","2","2151","legacy","small","1024","2","48000","-16","experiment","2_7_add_FI.jpg","12","even","legacy","152610","NA","127535","NA","NA","1846","NA","1859","108859","152610","155909","57512","106161","1847","mousetracking operator preview effect","0","0","0","no","false","no","1680"
"neutral","undefined","1","undefined","undefined","white","no","legacy","legacy","legacy","0","relative","undefined","undefined","5","NA","0","0","0","0","0","0","0","21","21","0","15","0","no","03/31/19 19:05:54","A simple template for the mouse-tracking paradigm","yes","Experiment-FT.osexp","C:\Users\Kristen\Documents\opPreviewExperiment-master\procedure","no","mono","no","24","no","black","no","yes","1050","legacy","5","15","C:/Users/Kristen/Documents/opPreviewExperiment-master/procedure/subject-12.csv","legacy","Kafkaesque Koffka","3.2.6","add","0","a","NA","NA","l","l","18676","NA","NA","55652","18676","2","2833","legacy","small","1024","2","48000","-16","experiment","5_3_add_FNI.jpg","12","even","legacy","155929","NA","127535","NA","NA","1846","NA","1859","108859","155929","159738","57512","106161","1847","mousetracking operator preview effect","0","0","0","no","false","no","1680"
"negative","undefined","1","undefined","undefined","white","no","legacy","legacy","legacy","0","relative","undefined","undefined","6","NA","0","0","0","0","0","0","0","22","22","0","15","0","no","03/31/19 19:05:54","A simple template for the mouse-tracking paradigm","yes","Experiment-FT.osexp","C:\Users\Kristen\Documents\opPreviewExperiment-master\procedure","no","mono","no","24","no","black","no","yes","1050","legacy","6","15","C:/Users/Kristen/Documents/opPreviewExperiment-master/procedure/subject-12.csv","legacy","Kafkaesque Koffka","3.2.6","mult","0","l","NA","NA","l","l","18676","NA","NA","55652","18676","2","1414","legacy","small","1024","2","48000","-16","experiment","8_2_mult_true.jpg","12","even","legacy","159756","NA","127535","NA","NA","1846","NA","1859","108859","159756","162319","57512","106161","1847","mousetracking operator preview effect","0","0","0","no","true","no","1680"
"neutral","undefined","1","undefined","undefined","white","no","legacy","legacy","legacy","0","relative","undefined","undefined","7","NA","0","0","0","0","0","0","0","23","23","0","15","0","no","03/31/19 19:05:54","A simple template for the mouse-tracking paradigm","yes","Experiment-FT.osexp","C:\Users\Kristen\Documents\opPreviewExperiment-master\procedure","no","mono","no","24","no","black","no","yes","1050","legacy","7","15","C:/Users/Kristen/Documents/opPreviewExperiment-master/procedure/subject-12.csv","legacy","Kafkaesque Koffka","3.2.6","add","0","a","NA","NA","l","l","18676","NA","NA","55652","18676","2","1338","legacy","large","1024","2","48000","-16","experiment","8_4_add_FNI.jpg","12","even","legacy","162340","NA","127535","NA","NA","1846","NA","1859","108859","162340","164657","57512","106161","1847","mousetracking operator preview effect","0","0","0","no","false","no","1680"
"neutral","undefined","1","undefined","undefined","white","no","legacy","legacy","legacy","0","relative","undefined","undefined","8","NA","0","0","0","0","0","0","0","24","24","0","15","0","no","03/31/19 19:05:54","A simple template for the mouse-tracking paradigm","yes","Experiment-FT.osexp","C:\Users\Kristen\Documents\opPreviewExperiment-master\procedure","no","mono","no","24","no","black","no","yes","1050","legacy","8","15","C:/Users/Kristen/Documents/opPreviewExperiment-master/procedure/subject-12.csv","legacy","Kafkaesque Koffka","3.2.6","mult","0","a","NA","NA","l","l","18676","NA","NA","55652","18676","2","1516","legacy","small","1024","2","48000","-16","experiment","5_3_mult_FNI.jpg","12","even","legacy","164671","NA","127535","NA","NA","1846","NA","1859","108859","164671","167165","57512","106161","1847","mousetracking operator preview effect","0","0","0","no","false","no","1680"
"negative","undefined","1","undefined","undefined","white","no","legacy","legacy","legacy","0","relative","undefined","undefined","9","NA","0","0","0","0","0","0","0","25","25","0","15","0","no","03/31/19 19:05:54","A simple template for the mouse-tracking paradigm","yes","Experiment-FT.osexp","C:\Users\Kristen\Documents\opPreviewExperiment-master\procedure","no","mono","no","24","no","black","no","yes","1050","legacy","9","15","C:/Users/Kristen/Documents/opPreviewExperiment-master/procedure/subject-12.csv","legacy","Kafkaesque Koffka","3.2.6","mult","0","a","NA","NA","l","l","18676","NA","NA","55652","18676","2","2240","legacy","large","1024","2","48000","-16","experiment","9_7_mult_FI.jpg","12","even","legacy","167186","NA","127535","NA","NA","1846","NA","1859","108859","167186","170570","57512","106161","1847","mousetracking operator preview effect","0","0","0","no","false","no","1680"
"neutral","undefined","1","undefined","undefined","white","no","legacy","legacy","legacy","0","relative","undefined","undefined","10","NA","0","0","0","0","0","0","0","26","26","0","15","0","no","03/31/19 19:05:54","A simple template for the mouse-tracking paradigm","yes","Experiment-FT.osexp","C:\Users\Kristen\Documents\opPreviewExperiment-master\procedure","no","mono","no","24","no","black","no","yes","1050","legacy","10","15","C:/Users/Kristen/Documents/opPreviewExperiment-master/procedure/subject-12.csv","legacy","Kafkaesque Koffka","3.2.6","mult","0","a","NA","NA","l","l","18676","NA","NA","55652","18676","2","1808","legacy","small","1024","2","48000","-16","experiment","3_6_mult_FI.jpg","12","even","legacy","170600","NA","127535","NA","NA","1846","NA","1859","108859","170600","173376","57512","106161","1847","mousetracking operator preview effect","0","0","0","no","false","no","1680"
"neutral","undefined","1","undefined","undefined","white","no","legacy","legacy","legacy","0","relative","undefined","undefined","11","NA","0","0","0","0","0","0","0","27","27","0","15","0","no","03/31/19 19:05:54","A simple template for the mouse-tracking paradigm","yes","Experiment-FT.osexp","C:\Users\Kristen\Documents\opPreviewExperiment-master\procedure","no","mono","no","24","no","black","no","yes","1050","legacy","11","15","C:/Users/Kristen/Documents/opPreviewExperiment-master/procedure/subject-12.csv","legacy","Kafkaesque Koffka","3.2.6","add","0","l","NA","NA","l","l","18676","NA","NA","55652","18676","2","1670","legacy","large","1024","2","48000","-16","experiment","8_4_add_true.jpg","12","even","legacy","173398","NA","127535","NA","NA","1846","NA","1859","108859","173398","176042","57512","106161","1847","mousetracking operator preview effect","0","0","0","no","true","no","1680"
"negative","undefined","1","undefined","undefined","white","no","legacy","legacy","legacy","0","relative","undefined","undefined","12","NA","0","0","0","0","0","0","0","28","28","0","15","0","no","03/31/19 19:05:54","A simple template for the mouse-tracking paradigm","yes","Experiment-FT.osexp","C:\Users\Kristen\Documents\opPreviewExperiment-master\procedure","no","mono","no","24","no","black","no","yes","1050","legacy","12","15","C:/Users/Kristen/Documents/opPreviewExperiment-master/procedure/subject-12.csv","legacy","Kafkaesque Koffka","3.2.6","mult","0","a","NA","NA","l","l","18676","NA","NA","55652","18676","2","4828","legacy","large","1024","2","48000","-16","experiment","9_7_mult_FNI.jpg","12","even","legacy","176067","NA","127535","NA","NA","1846","NA","1859","108859","176067","182039","57512","106161","1847","mousetracking operator preview effect","0","0","0","no","false","no","1680"
"negative","undefined","1","undefined","undefined","white","no","legacy","legacy","legacy","0","relative","undefined","undefined","13","NA","0","0","0","0","0","0","0","29","29","0","15","0","no","03/31/19 19:05:54","A simple template for the mouse-tracking paradigm","yes","Experiment-FT.osexp","C:\Users\Kristen\Documents\opPreviewExperiment-master\procedure","no","mono","no","24","no","black","no","yes","1050","legacy","13","15","C:/Users/Kristen/Documents/opPreviewExperiment-master/procedure/subject-12.csv","legacy","Kafkaesque Koffka","3.2.6","mult","0","a","NA","NA","l","l","18676","NA","NA","55652","18676","2","1713","legacy","small","1024","2","48000","-16","experiment","2_7_mult_FNI.jpg","12","even","legacy","182060","NA","127535","NA","NA","1846","NA","1859","108859","182060","184917","57512","106161","1847","mousetracking operator preview effect","0","0","0","no","false","no","1680"
"neutral","undefined","1","undefined","undefined","white","no","legacy","legacy","legacy","0","relative","undefined","undefined","14","NA","0","0","0","0","0","0","0","30","30","0","15","0","no","03/31/19 19:05:54","A simple template for the mouse-tracking paradigm","yes","Experiment-FT.osexp","C:\Users\Kristen\Documents\opPreviewExperiment-master\procedure","no","mono","no","24","no","black","no","yes","1050","legacy","14","15","C:/Users/Kristen/Documents/opPreviewExperiment-master/procedure/subject-12.csv","legacy","Kafkaesque Koffka","3.2.6","add","0","l","NA","NA","l","l","18676","NA","NA","55652","18676","2","2583","legacy","small","1024","2","48000","-16","experiment","5_3_add_true.jpg","12","even","legacy","184938","NA","127535","NA","NA","1846","NA","1859","108859","184938","188495","57512","106161","1847","mousetracking operator preview effect","0","0","0","no","true","no","1680"
"negative","undefined","1","undefined","undefined","white","no","legacy","legacy","legacy","0","relative","undefined","undefined","15","NA","0","0","0","0","0","0","0","31","31","0","15","0","no","03/31/19 19:05:54","A simple template for the mouse-tracking paradigm","yes","Experiment-FT.osexp","C:\Users\Kristen\Documents\opPreviewExperiment-master\procedure","no","mono","no","24","no","black","no","yes","1050","legacy","15","15","C:/Users/Kristen/Documents/opPreviewExperiment-master/procedure/subject-12.csv","legacy","Kafkaesque Koffka","3.2.6","mult","0","a","NA","NA","l","l","18676","NA","NA","55652","18676","2","2185","legacy","small","1024","2","48000","-16","experiment","8_2_mult_FI.jpg","12","even","legacy","188517","NA","127535","NA","NA","1846","NA","1859","108859","188517","191837","57512","106161","1847","mousetracking operator preview effect","0","0","0","no","false","no","1680"
"neutral","undefined","1","undefined","undefined","white","no","legacy","legacy","legacy","0","relative","undefined","undefined","16","NA","0","0","0","0","0","0","0","32","32","0","15","0","no","03/31/19 19:05:54","A simple template for the mouse-tracking paradigm","yes","Experiment-FT.osexp","C:\Users\Kristen\Documents\opPreviewExperiment-master\procedure","no","mono","no","24","no","black","no","yes","1050","legacy","16","15","C:/Users/Kristen/Documents/opPreviewExperiment-master/procedure/subject-12.csv","legacy","Kafkaesque Koffka","3.2.6","add","0","a","NA","NA","l","l","18676","NA","NA","55652","18676","2","2044","legacy","small","1024","2","48000","-16","experiment","2_7_add_FNI.jpg","12","even","legacy","191858","NA","127535","NA","NA","1846","NA","1859","108859","191858","194876","57512","106161","1847","mousetracking operator preview effect","0","0","0","no","false","no","1680"
"neutral","undefined","1","undefined","undefined","white","no","legacy","legacy","legacy","0","relative","undefined","undefined","17","NA","0","0","0","0","0","0","0","33","33","0","15","0","no","03/31/19 19:05:54","A simple template for the mouse-tracking paradigm","yes","Experiment-FT.osexp","C:\Users\Kristen\Documents\opPreviewExperiment-master\procedure","no","mono","no","24","no","black","no","yes","1050","legacy","17","15","C:/Users/Kristen/Documents/opPreviewExperiment-master/procedure/subject-12.csv","legacy","Kafkaesque Koffka","3.2.6","add","0","l","NA","NA","l","l","18676","NA","NA","55652","18676","2","1753","legacy","small","1024","2","48000","-16","experiment","2_7_add_true.jpg","12","even","legacy","194896","NA","127535","NA","NA","1846","NA","1859","108859","194896","197625","57512","106161","1847","mousetracking operator preview effect","0","0","0","no","true","no","1680"
"negative","undefined","1","undefined","undefined","white","no","legacy","legacy","legacy","0","relative","undefined","undefined","18","NA","0","0","0","0","0","0","0","34","34","0","15","0","no","03/31/19 19:05:54","A simple template for the mouse-tracking paradigm","yes","Experiment-FT.osexp","C:\Users\Kristen\Documents\opPreviewExperiment-master\procedure","no","mono","no","24","no","black","no","yes","1050","legacy","18","15","C:/Users/Kristen/Documents/opPreviewExperiment-master/procedure/subject-12.csv","legacy","Kafkaesque Koffka","3.2.6","mult","0","l","NA","NA","l","l","18676","NA","NA","55652","18676","2","1372","legacy","small","1024","2","48000","-16","experiment","5_3_mult_true.jpg","12","even","legacy","197648","NA","127535","NA","NA","1846","NA","1859","108859","197648","200161","57512","106161","1847","mousetracking operator preview effect","0","0","0","no","true","no","1680"
"neutral","undefined","1","undefined","undefined","white","no","legacy","legacy","legacy","0","relative","undefined","undefined","19","NA","0","0","0","0","0","0","0","35","35","0","15","0","no","03/31/19 19:05:54","A simple template for the mouse-tracking paradigm","yes","Experiment-FT.osexp","C:\Users\Kristen\Documents\opPreviewExperiment-master\procedure","no","mono","no","24","no","black","no","yes","1050","legacy","19","15","C:/Users/Kristen/Documents/opPreviewExperiment-master/procedure/subject-12.csv","legacy","Kafkaesque Koffka","3.2.6","mult","0","a","NA","NA","l","l","18676","NA","NA","55652","18676","2","2237","legacy","large","1024","2","48000","-16","experiment","8_4_mult_FNI.jpg","12","even","legacy","200182","NA","127535","NA","NA","1846","NA","1859","108859","200182","203397","57512","106161","1847","mousetracking operator preview effect","0","0","0","no","false","no","1680"
"neutral","undefined","1","undefined","undefined","white","no","legacy","legacy","legacy","0","relative","undefined","undefined","20","NA","0","0","0","0","0","0","0","36","36","0","15","0","no","03/31/19 19:05:54","A simple template for the mouse-tracking paradigm","yes","Experiment-FT.osexp","C:\Users\Kristen\Documents\opPreviewExperiment-master\procedure","no","mono","no","24","no","black","no","yes","1050","legacy","20","15","C:/Users/Kristen/Documents/opPreviewExperiment-master/procedure/subject-12.csv","legacy","Kafkaesque Koffka","3.2.6","mult","0","a","NA","NA","l","l","18676","NA","NA","55652","18676","2","4037","legacy","large","1024","2","48000","-16","experiment","4_9_mult_FNI.jpg","12","even","legacy","203418","NA","127535","NA","NA","1846","NA","1859","108859","203418","208425","57512","106161","1847","mousetracking operator preview effect","0","0","0","no","false","no","1680"
"neutral","undefined","1","undefined","undefined","white","no","legacy","legacy","legacy","0","relative","undefined","undefined","21","NA","0","0","0","0","0","0","0","37","37","0","15","0","no","03/31/19 19:05:54","A simple template for the mouse-tracking paradigm","yes","Experiment-FT.osexp","C:\Users\Kristen\Documents\opPreviewExperiment-master\procedure","no","mono","no","24","no","black","no","yes","1050","legacy","21","15","C:/Users/Kristen/Documents/opPreviewExperiment-master/procedure/subject-12.csv","legacy","Kafkaesque Koffka","3.2.6","mult","0","l","NA","NA","l","l","18676","NA","NA","55652","18676","2","1516","legacy","small","1024","2","48000","-16","experiment","2_7_mult_true.jpg","12","even","legacy","208449","NA","127535","NA","NA","1846","NA","1859","108859","208449","210937","57512","106161","1847","mousetracking operator preview effect","0","0","0","no","true","no","1680"
"neutral","undefined","1","undefined","undefined","white","no","legacy","legacy","legacy","0","relative","undefined","undefined","22","NA","0","0","0","0","0","0","0","38","38","0","15","0","no","03/31/19 19:05:54","A simple template for the mouse-tracking paradigm","yes","Experiment-FT.osexp","C:\Users\Kristen\Documents\opPreviewExperiment-master\procedure","no","mono","no","24","no","black","no","yes","1050","legacy","22","15","C:/Users/Kristen/Documents/opPreviewExperiment-master/procedure/subject-12.csv","legacy","Kafkaesque Koffka","3.2.6","mult","0","a","NA","NA","l","l","18676","NA","NA","55652","18676","2","3123","legacy","large","1024","2","48000","-16","experiment","6_8_mult_FI.jpg","12","even","legacy","210958","NA","127535","NA","NA","1846","NA","1859","108859","210958","215053","57512","106161","1847","mousetracking operator preview effect","0","0","0","no","false","no","1680"
"negative","undefined","1","undefined","undefined","white","no","legacy","legacy","legacy","0","relative","undefined","undefined","23","NA","0","0","0","0","0","0","0","39","39","0","15","0","no","03/31/19 19:05:54","A simple template for the mouse-tracking paradigm","yes","Experiment-FT.osexp","C:\Users\Kristen\Documents\opPreviewExperiment-master\procedure","no","mono","no","24","no","black","no","yes","1050","legacy","23","15","C:/Users/Kristen/Documents/opPreviewExperiment-master/procedure/subject-12.csv","legacy","Kafkaesque Koffka","3.2.6","add","0","l","NA","NA","l","l","18676","NA","NA","55652","18676","2","6523","legacy","large","1024","2","48000","-16","experiment","9_7_add_true.jpg","12","even","legacy","215074","NA","127535","NA","NA","1846","NA","1859","108859","215074","222738","57512","106161","1847","mousetracking operator preview effect","0","0","0","no","true","no","1680"
"negative","undefined","1","undefined","undefined","white","no","legacy","legacy","legacy","0","relative","undefined","undefined","24","NA","0","0","0","0","0","0","0","40","40","0","15","0","no","03/31/19 19:05:54","A simple template for the mouse-tracking paradigm","yes","Experiment-FT.osexp","C:\Users\Kristen\Documents\opPreviewExperiment-master\procedure","no","mono","no","24","no","black","no","yes","1050","legacy","24","15","C:/Users/Kristen/Documents/opPreviewExperiment-master/procedure/subject-12.csv","legacy","Kafkaesque Koffka","3.2.6","add","0","l","NA","NA","l","l","18676","NA","NA","55652","18676","2","1677","legacy","small","1024","2","48000","-16","experiment","5_3_add_true.jpg","12","even","legacy","222758","NA","127535","NA","NA","1846","NA","1859","108859","222758","225573","57512","106161","1847","mousetracking operator preview effect","0","0","0","no","true","no","1680"
"negative","undefined","1","undefined","undefined","white","no","legacy","legacy","legacy","0","relative","undefined","undefined","25","NA","0","0","0","0","0","0","0","41","41","0","15","0","no","03/31/19 19:05:54","A simple template for the mouse-tracking paradigm","yes","Experiment-FT.osexp","C:\Users\Kristen\Documents\opPreviewExperiment-master\procedure","no","mono","no","24","no","black","no","yes","1050","legacy","25","15","C:/Users/Kristen/Documents/opPreviewExperiment-master/procedure/subject-12.csv","legacy","Kafkaesque Koffka","3.2.6","mult","0","a","NA","NA","l","l","18676","NA","NA","55652","18676","2","1949","legacy","large","1024","2","48000","-16","experiment","6_8_mult_FI.jpg","12","even","legacy","225600","NA","127535","NA","NA","1846","NA","1859","108859","225600","228681","57512","106161","1847","mousetracking operator preview effect","0","0","0","no","false","no","1680"
"negative","undefined","1","undefined","undefined","white","no","legacy","legacy","legacy","0","relative","undefined","undefined","26","NA","0","0","0","0","0","0","0","42","42","0","15","0","no","03/31/19 19:05:54","A simple template for the mouse-tracking paradigm","yes","Experiment-FT.osexp","C:\Users\Kristen\Documents\opPreviewExperiment-master\procedure","no","mono","no","24","no","black","no","yes","1050","legacy","26","15","C:/Users/Kristen/Documents/opPreviewExperiment-master/procedure/subject-12.csv","legacy","Kafkaesque Koffka","3.2.6","mult","0","a","NA","NA","l","l","18676","NA","NA","55652","18676","2","1355","legacy","small","1024","2","48000","-16","experiment","2_7_mult_FI.jpg","12","even","legacy","228709","NA","127535","NA","NA","1846","NA","1859","108859","228709","231209","57512","106161","1847","mousetracking operator preview effect","0","0","0","no","false","no","1680"
"negative","undefined","1","undefined","undefined","white","no","legacy","legacy","legacy","0","relative","undefined","undefined","27","NA","0","0","0","0","0","0","0","43","43","0","15","0","no","03/31/19 19:05:54","A simple template for the mouse-tracking paradigm","yes","Experiment-FT.osexp","C:\Users\Kristen\Documents\opPreviewExperiment-master\procedure","no","mono","no","24","no","black","no","yes","1050","legacy","27","15","C:/Users/Kristen/Documents/opPreviewExperiment-master/procedure/subject-12.csv","legacy","Kafkaesque Koffka","3.2.6","mult","0","l","NA","NA","l","l","18676","NA","NA","55652","18676","2","2073","legacy","large","1024","2","48000","-16","experiment","6_8_mult_true.jpg","12","even","legacy","231236","NA","127535","NA","NA","1846","NA","1859","108859","231236","234458","57512","106161","1847","mousetracking operator preview effect","0","0","0","no","true","no","1680"
"negative","undefined","0","undefined","undefined","white","no","legacy","legacy","legacy","0","relative","undefined","undefined","28","NA","0","0","0","0","0","0","0","44","44","0","15","0","no","03/31/19 19:05:54","A simple template for the mouse-tracking paradigm","yes","Experiment-FT.osexp","C:\Users\Kristen\Documents\opPreviewExperiment-master\procedure","no","mono","no","24","no","black","no","yes","1050","legacy","28","15","C:/Users/Kristen/Documents/opPreviewExperiment-master/procedure/subject-12.csv","legacy","Kafkaesque Koffka","3.2.6","mult","0","a","NA","NA","l","l","18676","NA","NA","55652","18676","2","5734","legacy","large","1024","2","48000","-16","experiment","9_7_mult_true.jpg","12","even","legacy","234479","NA","127535","NA","NA","1846","NA","1859","108859","234479","242368","57512","106161","1847","mousetracking operator preview effect","0","0","0","no","true","no","1680"
"neutral","undefined","1","undefined","undefined","white","no","legacy","legacy","legacy","0","relative","undefined","undefined","29","NA","0","0","0","0","0","0","0","45","45","0","15","0","no","03/31/19 19:05:54","A simple template for the mouse-tracking paradigm","yes","Experiment-FT.osexp","C:\Users\Kristen\Documents\opPreviewExperiment-master\procedure","no","mono","no","24","no","black","no","yes","1050","legacy","29","15","C:/Users/Kristen/Documents/opPreviewExperiment-master/procedure/subject-12.csv","legacy","Kafkaesque Koffka","3.2.6","add","0","a","NA","NA","l","l","18676","NA","NA","55652","18676","2","3042","legacy","large","1024","2","48000","-16","experiment","9_7_add_FI.jpg","12","even","legacy","242405","NA","127535","NA","NA","1846","NA","1859","108859","242406","246422","57512","106161","1847","mousetracking operator preview effect","0","0","0","no","false","no","1680"
"neutral","undefined","1","undefined","undefined","white","no","legacy","legacy","legacy","0","relative","undefined","undefined","30","NA","0","0","0","0","0","0","0","46","46","0","15","0","no","03/31/19 19:05:54","A simple template for the mouse-tracking paradigm","yes","Experiment-FT.osexp","C:\Users\Kristen\Documents\opPreviewExperiment-master\procedure","no","mono","no","24","no","black","no","yes","1050","legacy","30","15","C:/Users/Kristen/Documents/opPreviewExperiment-master/procedure/subject-12.csv","legacy","Kafkaesque Koffka","3.2.6","add","0","l","NA","NA","l","l","18676","NA","NA","55652","18676","2","1918","legacy","large","1024","2","48000","-16","experiment","8_4_add_true.jpg","12","even","legacy","246442","NA","127535","NA","NA","1846","NA","1859","108859","246442","249335","57512","106161","1847","mousetracking operator preview effect","0","0","0","no","true","no","1680"
"negative","undefined","1","undefined","undefined","white","no","legacy","legacy","legacy","0","relative","undefined","undefined","31","NA","0","0","0","0","0","0","0","47","47","0","15","0","no","03/31/19 19:05:54","A simple template for the mouse-tracking paradigm","yes","Experiment-FT.osexp","C:\Users\Kristen\Documents\opPreviewExperiment-master\procedure","no","mono","no","24","no","black","no","yes","1050","legacy","31","15","C:/Users/Kristen/Documents/opPreviewExperiment-master/procedure/subject-12.csv","legacy","Kafkaesque Koffka","3.2.6","add","0","l","NA","NA","l","l","18676","NA","NA","55652","18676","2","1650","legacy","small","1024","2","48000","-16","experiment","8_2_add_true.jpg","12","even","legacy","249356","NA","127535","NA","NA","1846","NA","1859","108859","249356","252150","57512","106161","1847","mousetracking operator preview effect","0","0","0","no","true","no","1680"
"negative","undefined","1","undefined","undefined","white","no","legacy","legacy","legacy","0","relative","undefined","undefined","32","NA","0","0","0","0","0","0","0","48","48","0","15","0","no","03/31/19 19:05:54","A simple template for the mouse-tracking paradigm","yes","Experiment-FT.osexp","C:\Users\Kristen\Documents\opPreviewExperiment-master\procedure","no","mono","no","24","no","black","no","yes","1050","legacy","32","15","C:/Users/Kristen/Documents/opPreviewExperiment-master/procedure/subject-12.csv","legacy","Kafkaesque Koffka","3.2.6","add","0","a","NA","NA","l","l","18676","NA","NA","55652","18676","2","2755","legacy","small","1024","2","48000","-16","experiment","8_2_add_FNI.jpg","12","even","legacy","252176","NA","127535","NA","NA","1846","NA","1859","108859","252176","256077","57512","106161","1847","mousetracking operator preview effect","0","0","0","no","false","no","1680"
"negative","undefined","1","undefined","undefined","white","no","legacy","legacy","legacy","0","relative","undefined","undefined","33","NA","0","0","0","0","0","0","0","49","49","0","15","0","no","03/31/19 19:05:54","A simple template for the mouse-tracking paradigm","yes","Experiment-FT.osexp","C:\Users\Kristen\Documents\opPreviewExperiment-master\procedure","no","mono","no","24","no","black","no","yes","1050","legacy","33","15","C:/Users/Kristen/Documents/opPreviewExperiment-master/procedure/subject-12.csv","legacy","Kafkaesque Koffka","3.2.6","mult","0","a","NA","NA","l","l","18676","NA","NA","55652","18676","2","3039","legacy","small","1024","2","48000","-16","experiment","3_6_mult_FI.jpg","12","even","legacy","256109","NA","127535","NA","NA","1846","NA","1859","108859","256109","260290","57512","106161","1847","mousetracking operator preview effect","0","0","0","no","false","no","1680"
"neutral","undefined","1","undefined","undefined","white","no","legacy","legacy","legacy","0","relative","undefined","undefined","34","NA","0","0","0","0","0","0","0","50","50","0","15","0","no","03/31/19 19:05:54","A simple template for the mouse-tracking paradigm","yes","Experiment-FT.osexp","C:\Users\Kristen\Documents\opPreviewExperiment-master\procedure","no","mono","no","24","no","black","no","yes","1050","legacy","34","15","C:/Users/Kristen/Documents/opPreviewExperiment-master/procedure/subject-12.csv","legacy","Kafkaesque Koffka","3.2.6","add","0","a","NA","NA","l","l","18676","NA","NA","55652","18676","2","3138","legacy","large","1024","2","48000","-16","experiment","4_9_add_FNI.jpg","12","even","legacy","260320","NA","127535","NA","NA","1846","NA","1859","108859","260320","264435","57512","106161","1847","mousetracking operator preview effect","0","0","0","no","false","no","1680"
"neutral","undefined","1","undefined","undefined","white","no","legacy","legacy","legacy","0","relative","undefined","undefined","35","NA","0","0","0","0","0","0","0","51","51","0","15","0","no","03/31/19 19:05:54","A simple template for the mouse-tracking paradigm","yes","Experiment-FT.osexp","C:\Users\Kristen\Documents\opPreviewExperiment-master\procedure","no","mono","no","24","no","black","no","yes","1050","legacy","35","15","C:/Users/Kristen/Documents/opPreviewExperiment-master/procedure/subject-12.csv","legacy","Kafkaesque Koffka","3.2.6","mult","0","l","NA","NA","l","l","18676","NA","NA","55652","18676","2","2866","legacy","large","1024","2","48000","-16","experiment","8_4_mult_true.jpg","12","even","legacy","264458","NA","127535","NA","NA","1846","NA","1859","108859","264458","268301","57512","106161","1847","mousetracking operator preview effect","0","0","0","no","true","no","1680"
"negative","undefined","1","undefined","undefined","white","no","legacy","legacy","legacy","0","relative","undefined","undefined","36","NA","0","0","0","0","0","0","0","52","52","0","15","0","no","03/31/19 19:05:54","A simple template for the mouse-tracking paradigm","yes","Experiment-FT.osexp","C:\Users\Kristen\Documents\opPreviewExperiment-master\procedure","no","mono","no","24","no","black","no","yes","1050","legacy","36","15","C:/Users/Kristen/Documents/opPreviewExperiment-master/procedure/subject-12.csv","legacy","Kafkaesque Koffka","3.2.6","add","0","l","NA","NA","l","l","18676","NA","NA","55652","18676","2","2101","legacy","large","1024","2","48000","-16","experiment","4_9_add_true.jpg","12","even","legacy","268323","NA","127535","NA","NA","1846","NA","1859","108859","268323","271567","57512","106161","1847","mousetracking operator preview effect","0","0","0","no","true","no","1680"
"negative","undefined","1","undefined","undefined","white","no","legacy","legacy","legacy","0","relative","undefined","undefined","37","NA","0","0","0","0","0","0","0","53","53","0","15","0","no","03/31/19 19:05:54","A simple template for the mouse-tracking paradigm","yes","Experiment-FT.osexp","C:\Users\Kristen\Documents\opPreviewExperiment-master\procedure","no","mono","no","24","no","black","no","yes","1050","legacy","37","15","C:/Users/Kristen/Documents/opPreviewExperiment-master/procedure/subject-12.csv","legacy","Kafkaesque Koffka","3.2.6","add","0","l","NA","NA","l","l","18676","NA","NA","55652","18676","2","1619","legacy","small","1024","2","48000","-16","experiment","5_3_add_true.jpg","12","even","legacy","271591","NA","127535","NA","NA","1846","NA","1859","108859","271591","274354","57512","106161","1847","mousetracking operator preview effect","0","0","0","no","true","no","1680"
"negative","undefined","1","undefined","undefined","white","no","legacy","legacy","legacy","0","relative","undefined","undefined","38","NA","0","0","0","0","0","0","0","54","54","0","15","0","no","03/31/19 19:05:54","A simple template for the mouse-tracking paradigm","yes","Experiment-FT.osexp","C:\Users\Kristen\Documents\opPreviewExperiment-master\procedure","no","mono","no","24","no","black","no","yes","1050","legacy","38","15","C:/Users/Kristen/Documents/opPreviewExperiment-master/procedure/subject-12.csv","legacy","Kafkaesque Koffka","3.2.6","add","0","l","NA","NA","l","l","18676","NA","NA","55652","18676","2","2573","legacy","large","1024","2","48000","-16","experiment","6_8_add_true.jpg","12","even","legacy","274376","NA","127535","NA","NA","1846","NA","1859","108859","274376","278092","57512","106161","1847","mousetracking operator preview effect","0","0","0","no","true","no","1680"
"neutral","undefined","1","undefined","undefined","white","no","legacy","legacy","legacy","0","relative","undefined","undefined","39","NA","0","0","0","0","0","0","0","55","55","0","15","0","no","03/31/19 19:05:54","A simple template for the mouse-tracking paradigm","yes","Experiment-FT.osexp","C:\Users\Kristen\Documents\opPreviewExperiment-master\procedure","no","mono","no","24","no","black","no","yes","1050","legacy","39","15","C:/Users/Kristen/Documents/opPreviewExperiment-master/procedure/subject-12.csv","legacy","Kafkaesque Koffka","3.2.6","mult","0","a","NA","NA","l","l","18676","NA","NA","55652","18676","2","1969","legacy","large","1024","2","48000","-16","experiment","9_7_mult_FI.jpg","12","even","legacy","278114","NA","127535","NA","NA","1846","NA","1859","108859","278114","281056","57512","106161","1847","mousetracking operator preview effect","0","0","0","no","false","no","1680"
"neutral","undefined","1","undefined","undefined","white","no","legacy","legacy","legacy","0","relative","undefined","undefined","40","NA","0","0","0","0","0","0","0","56","56","0","15","0","no","03/31/19 19:05:54","A simple template for the mouse-tracking paradigm","yes","Experiment-FT.osexp","C:\Users\Kristen\Documents\opPreviewExperiment-master\procedure","no","mono","no","24","no","black","no","yes","1050","legacy","40","15","C:/Users/Kristen/Documents/opPreviewExperiment-master/procedure/subject-12.csv","legacy","Kafkaesque Koffka","3.2.6","add","0","l","NA","NA","l","l","18676","NA","NA","55652","18676","2","1494","legacy","small","1024","2","48000","-16","experiment","5_3_add_true.jpg","12","even","legacy","281069","NA","127535","NA","NA","1846","NA","1859","108859","281069","283536","57512","106161","1847","mousetracking operator preview effect","0","0","0","no","true","no","1680"
"neutral","undefined","1","undefined","undefined","white","no","legacy","legacy","legacy","0","relative","undefined","undefined","41","NA","0","0","0","0","0","0","0","57","57","0","15","0","no","03/31/19 19:05:54","A simple template for the mouse-tracking paradigm","yes","Experiment-FT.osexp","C:\Users\Kristen\Documents\opPreviewExperiment-master\procedure","no","mono","no","24","no","black","no","yes","1050","legacy","41","15","C:/Users/Kristen/Documents/opPreviewExperiment-master/procedure/subject-12.csv","legacy","Kafkaesque Koffka","3.2.6","mult","0","l","NA","NA","l","l","18676","NA","NA","55652","18676","2","1392","legacy","small","1024","2","48000","-16","experiment","8_2_mult_true.jpg","12","even","legacy","283564","NA","127535","NA","NA","1846","NA","1859","108859","283564","285930","57512","106161","1847","mousetracking operator preview effect","0","0","0","no","true","no","1680"
"negative","undefined","1","undefined","undefined","white","no","legacy","legacy","legacy","0","relative","undefined","undefined","42","NA","0","0","0","0","0","0","0","58","58","0","15","0","no","03/31/19 19:05:54","A simple template for the mouse-tracking paradigm","yes","Experiment-FT.osexp","C:\Users\Kristen\Documents\opPreviewExperiment-master\procedure","no","mono","no","24","no","black","no","yes","1050","legacy","42","15","C:/Users/Kristen/Documents/opPreviewExperiment-master/procedure/subject-12.csv","legacy","Kafkaesque Koffka","3.2.6","add","0","a","NA","NA","l","l","18676","NA","NA","55652","18676","2","3545","legacy","large","1024","2","48000","-16","experiment","6_8_add_FNI.jpg","12","even","legacy","285950","NA","127535","NA","NA","1846","NA","1859","108859","285950","290641","57512","106161","1847","mousetracking operator preview effect","0","0","0","no","false","no","1680"
"neutral","undefined","1","undefined","undefined","white","no","legacy","legacy","legacy","0","relative","undefined","undefined","43","NA","0","0","0","0","0","0","0","59","59","0","15","0","no","03/31/19 19:05:54","A simple template for the mouse-tracking paradigm","yes","Experiment-FT.osexp","C:\Users\Kristen\Documents\opPreviewExperiment-master\procedure","no","mono","no","24","no","black","no","yes","1050","legacy","43","15","C:/Users/Kristen/Documents/opPreviewExperiment-master/procedure/subject-12.csv","legacy","Kafkaesque Koffka","3.2.6","mult","0","l","NA","NA","l","l","18676","NA","NA","55652","18676","2","1912","legacy","small","1024","2","48000","-16","experiment","3_6_mult_true.jpg","12","even","legacy","290673","NA","127535","NA","NA","1846","NA","1859","108859","290673","293558","57512","106161","1847","mousetracking operator preview effect","0","0","0","no","true","no","1680"
"neutral","undefined","1","undefined","undefined","white","no","legacy","legacy","legacy","0","relative","undefined","undefined","44","NA","0","0","0","0","0","0","0","60","60","0","15","0","no","03/31/19 19:05:54","A simple template for the mouse-tracking paradigm","yes","Experiment-FT.osexp","C:\Users\Kristen\Documents\opPreviewExperiment-master\procedure","no","mono","no","24","no","black","no","yes","1050","legacy","44","15","C:/Users/Kristen/Documents/opPreviewExperiment-master/procedure/subject-12.csv","legacy","Kafkaesque Koffka","3.2.6","add","0","l","NA","NA","l","l","18676","NA","NA","55652","18676","2","1546","legacy","small","1024","2","48000","-16","experiment","3_6_add_true.jpg","12","even","legacy","293578","NA","127535","NA","NA","1846","NA","1859","108859","293578","296102","57512","106161","1847","mousetracking operator preview effect","0","0","0","no","true","no","1680"
"neutral","undefined","1","undefined","undefined","white","no","legacy","legacy","legacy","0","relative","undefined","undefined","45","NA","0","0","0","0","0","0","0","61","61","0","15","0","no","03/31/19 19:05:54","A simple template for the mouse-tracking paradigm","yes","Experiment-FT.osexp","C:\Users\Kristen\Documents\opPreviewExperiment-master\procedure","no","mono","no","24","no","black","no","yes","1050","legacy","45","15","C:/Users/Kristen/Documents/opPreviewExperiment-master/procedure/subject-12.csv","legacy","Kafkaesque Koffka","3.2.6","mult","0","a","NA","NA","l","l","18676","NA","NA","55652","18676","2","1646","legacy","small","1024","2","48000","-16","experiment","5_3_mult_FI.jpg","12","even","legacy","296129","NA","127535","NA","NA","1846","NA","1859","108859","296129","298750","57512","106161","1847","mousetracking operator preview effect","0","0","0","no","false","no","1680"
"neutral","undefined","1","undefined","undefined","white","no","legacy","legacy","legacy","0","relative","undefined","undefined","46","NA","0","0","0","0","0","0","0","62","62","0","15","0","no","03/31/19 19:05:54","A simple template for the mouse-tracking paradigm","yes","Experiment-FT.osexp","C:\Users\Kristen\Documents\opPreviewExperiment-master\procedure","no","mono","no","24","no","black","no","yes","1050","legacy","46","15","C:/Users/Kristen/Documents/opPreviewExperiment-master/procedure/subject-12.csv","legacy","Kafkaesque Koffka","3.2.6","mult","0","a","NA","NA","l","l","18676","NA","NA","55652","18676","2","2402","legacy","large","1024","2","48000","-16","experiment","4_9_mult_FI.jpg","12","even","legacy","298778","NA","127535","NA","NA","1846","NA","1859","108859","298778","302156","57512","106161","1847","mousetracking operator preview effect","0","0","0","no","false","no","1680"
"neutral","undefined","1","undefined","undefined","white","no","legacy","legacy","legacy","0","relative","undefined","undefined","47","NA","0","0","0","0","0","0","0","63","63","0","15","0","no","03/31/19 19:05:54","A simple template for the mouse-tracking paradigm","yes","Experiment-FT.osexp","C:\Users\Kristen\Documents\opPreviewExperiment-master\procedure","no","mono","no","24","no","black","no","yes","1050","legacy","47","15","C:/Users/Kristen/Documents/opPreviewExperiment-master/procedure/subject-12.csv","legacy","Kafkaesque Koffka","3.2.6","add","0","a","NA","NA","l","l","18676","NA","NA","55652","18676","2","2407","legacy","small","1024","2","48000","-16","experiment","2_7_add_FI.jpg","12","even","legacy","302176","NA","127535","NA","NA","1846","NA","1859","108859","302176","305557","57512","106161","1847","mousetracking operator preview effect","0","0","0","no","false","no","1680"
"negative","undefined","1","undefined","undefined","white","no","legacy","legacy","legacy","0","relative","undefined","undefined","48","NA","0","0","0","0","0","0","0","64","64","0","15","0","no","03/31/19 19:05:54","A simple template for the mouse-tracking paradigm","yes","Experiment-FT.osexp","C:\Users\Kristen\Documents\opPreviewExperiment-master\procedure","no","mono","no","24","no","black","no","yes","1050","legacy","48","15","C:/Users/Kristen/Documents/opPreviewExperiment-master/procedure/subject-12.csv","legacy","Kafkaesque Koffka","3.2.6","mult","0","l","NA","NA","l","l","18676","NA","NA","55652","18676","2","2268","legacy","large","1024","2","48000","-16","experiment","8_4_mult_true.jpg","12","even","legacy","305577","NA","127535","NA","NA","1846","NA","1859","108859","305577","308987","57512","106161","1847","mousetracking operator preview effect","0","0","0","no","true","no","1680"
"negative","undefined","1","undefined","undefined","white","no","legacy","legacy","legacy","0","relative","undefined","undefined","49","NA","0","0","0","0","0","0","0","65","65","0","15","0","no","03/31/19 19:05:54","A simple template for the mouse-tracking paradigm","yes","Experiment-FT.osexp","C:\Users\Kristen\Documents\opPreviewExperiment-master\procedure","no","mono","no","24","no","black","no","yes","1050","legacy","49","15","C:/Users/Kristen/Documents/opPreviewExperiment-master/procedure/subject-12.csv","legacy","Kafkaesque Koffka","3.2.6","mult","0","a","NA","NA","l","l","18676","NA","NA","55652","18676","2","1672","legacy","small","1024","2","48000","-16","experiment","5_3_mult_FNI.jpg","12","even","legacy","309007","NA","127535","NA","NA","1846","NA","1859","108859","309007","311828","57512","106161","1847","mousetracking operator preview effect","0","0","0","no","false","no","1680"
"neutral","undefined","1","undefined","undefined","white","no","legacy","legacy","legacy","0","relative","undefined","undefined","50","NA","0","0","0","0","0","0","0","66","66","0","15","0","no","03/31/19 19:05:54","A simple template for the mouse-tracking paradigm","yes","Experiment-FT.osexp","C:\Users\Kristen\Documents\opPreviewExperiment-master\procedure","no","mono","no","24","no","black","no","yes","1050","legacy","50","15","C:/Users/Kristen/Documents/opPreviewExperiment-master/procedure/subject-12.csv","legacy","Kafkaesque Koffka","3.2.6","add","0","l","NA","NA","l","l","18676","NA","NA","55652","18676","2","1730","legacy","small","1024","2","48000","-16","experiment","3_6_add_true.jpg","12","even","legacy","311850","NA","127535","NA","NA","1846","NA","1859","108859","311850","314558","57512","106161","1847","mousetracking operator preview effect","0","0","0","no","true","no","1680"
"neutral","undefined","1","undefined","undefined","white","no","legacy","legacy","legacy","0","relative","undefined","undefined","51","NA","0","0","0","0","0","0","0","67","67","0","15","0","no","03/31/19 19:05:54","A simple template for the mouse-tracking paradigm","yes","Experiment-FT.osexp","C:\Users\Kristen\Documents\opPreviewExperiment-master\procedure","no","mono","no","24","no","black","no","yes","1050","legacy","51","15","C:/Users/Kristen/Documents/opPreviewExperiment-master/procedure/subject-12.csv","legacy","Kafkaesque Koffka","3.2.6","add","0","l","NA","NA","l","l","18676","NA","NA","55652","18676","2","3516","legacy","large","1024","2","48000","-16","experiment","6_8_add_true.jpg","12","even","legacy","314578","NA","127535","NA","NA","1846","NA","1859","108859","314578","319070","57512","106161","1847","mousetracking operator preview effect","0","0","0","no","true","no","1680"
"negative","undefined","1","undefined","undefined","white","no","legacy","legacy","legacy","0","relative","undefined","undefined","52","NA","0","0","0","0","0","0","0","68","68","0","15","0","no","03/31/19 19:05:54","A simple template for the mouse-tracking paradigm","yes","Experiment-FT.osexp","C:\Users\Kristen\Documents\opPreviewExperiment-master\procedure","no","mono","no","24","no","black","no","yes","1050","legacy","52","15","C:/Users/Kristen/Documents/opPreviewExperiment-master/procedure/subject-12.csv","legacy","Kafkaesque Koffka","3.2.6","add","0","l","NA","NA","l","l","18676","NA","NA","55652","18676","2","1752","legacy","small","1024","2","48000","-16","experiment","2_7_add_true.jpg","12","even","legacy","319091","NA","127535","NA","NA","1846","NA","1859","108859","319091","321987","57512","106161","1847","mousetracking operator preview effect","0","0","0","no","true","no","1680"
"negative","undefined","1","undefined","undefined","white","no","legacy","legacy","legacy","0","relative","undefined","undefined","53","NA","0","0","0","0","0","0","0","69","69","0","15","0","no","03/31/19 19:05:54","A simple template for the mouse-tracking paradigm","yes","Experiment-FT.osexp","C:\Users\Kristen\Documents\opPreviewExperiment-master\procedure","no","mono","no","24","no","black","no","yes","1050","legacy","53","15","C:/Users/Kristen/Documents/opPreviewExperiment-master/procedure/subject-12.csv","legacy","Kafkaesque Koffka","3.2.6","mult","0","a","NA","NA","l","l","18676","NA","NA","55652","18676","2","2398","legacy","large","1024","2","48000","-16","experiment","8_4_mult_FNI.jpg","12","even","legacy","322010","NA","127535","NA","NA","1846","NA","1859","108859","322010","325552","57512","106161","1847","mousetracking operator preview effect","0","0","0","no","false","no","1680"
"neutral","undefined","1","undefined","undefined","white","no","legacy","legacy","legacy","0","relative","undefined","undefined","54","NA","0","0","0","0","0","0","0","70","70","0","15","0","no","03/31/19 19:05:54","A simple template for the mouse-tracking paradigm","yes","Experiment-FT.osexp","C:\Users\Kristen\Documents\opPreviewExperiment-master\procedure","no","mono","no","24","no","black","no","yes","1050","legacy","54","15","C:/Users/Kristen/Documents/opPreviewExperiment-master/procedure/subject-12.csv","legacy","Kafkaesque Koffka","3.2.6","mult","0","a","NA","NA","l","l","18676","NA","NA","55652","18676","2","1605","legacy","small","1024","2","48000","-16","experiment","2_7_mult_FNI.jpg","12","even","legacy","325574","NA","127535","NA","NA","1846","NA","1859","108859","325575","328151","57512","106161","1847","mousetracking operator preview effect","0","0","0","no","false","no","1680"
"neutral","undefined","1","undefined","undefined","white","no","legacy","legacy","legacy","0","relative","undefined","undefined","55","NA","0","0","0","0","0","0","0","71","71","0","15","0","no","03/31/19 19:05:54","A simple template for the mouse-tracking paradigm","yes","Experiment-FT.osexp","C:\Users\Kristen\Documents\opPreviewExperiment-master\procedure","no","mono","no","24","no","black","no","yes","1050","legacy","55","15","C:/Users/Kristen/Documents/opPreviewExperiment-master/procedure/subject-12.csv","legacy","Kafkaesque Koffka","3.2.6","add","0","a","NA","NA","l","l","18676","NA","NA","55652","18676","2","2098","legacy","large","1024","2","48000","-16","experiment","8_4_add_FI.jpg","12","even","legacy","328182","NA","127535","NA","NA","1846","NA","1859","108859","328182","331254","57512","106161","1847","mousetracking operator preview effect","0","0","0","no","false","no","1680"
"negative","undefined","1","undefined","undefined","white","no","legacy","legacy","legacy","0","relative","undefined","undefined","56","NA","0","0","0","0","0","0","0","72","72","0","15","0","no","03/31/19 19:05:54","A simple template for the mouse-tracking paradigm","yes","Experiment-FT.osexp","C:\Users\Kristen\Documents\opPreviewExperiment-master\procedure","no","mono","no","24","no","black","no","yes","1050","legacy","56","15","C:/Users/Kristen/Documents/opPreviewExperiment-master/procedure/subject-12.csv","legacy","Kafkaesque Koffka","3.2.6","mult","0","a","NA","NA","l","l","18676","NA","NA","55652","18676","2","2140","legacy","large","1024","2","48000","-16","experiment","8_4_mult_FI.jpg","12","even","legacy","331272","NA","127535","NA","NA","1846","NA","1859","108859","331272","334556","57512","106161","1847","mousetracking operator preview effect","0","0","0","no","false","no","1680"
"negative","undefined","1","undefined","undefined","white","no","legacy","legacy","legacy","0","relative","undefined","undefined","57","NA","0","0","0","0","0","0","0","73","73","0","15","0","no","03/31/19 19:05:54","A simple template for the mouse-tracking paradigm","yes","Experiment-FT.osexp","C:\Users\Kristen\Documents\opPreviewExperiment-master\procedure","no","mono","no","24","no","black","no","yes","1050","legacy","57","15","C:/Users/Kristen/Documents/opPreviewExperiment-master/procedure/subject-12.csv","legacy","Kafkaesque Koffka","3.2.6","mult","0","a","NA","NA","l","l","18676","NA","NA","55652","18676","2","2401","legacy","large","1024","2","48000","-16","experiment","4_9_mult_FI.jpg","12","even","legacy","334576","NA","127535","NA","NA","1846","NA","1859","108859","334576","338125","57512","106161","1847","mousetracking operator preview effect","0","0","0","no","false","no","1680"
"negative","undefined","0","undefined","undefined","white","no","legacy","legacy","legacy","0","relative","undefined","undefined","58","NA","0","0","0","0","0","0","0","74","74","0","15","0","no","03/31/19 19:05:54","A simple template for the mouse-tracking paradigm","yes","Experiment-FT.osexp","C:\Users\Kristen\Documents\opPreviewExperiment-master\procedure","no","mono","no","24","no","black","no","yes","1050","legacy","58","15","C:/Users/Kristen/Documents/opPreviewExperiment-master/procedure/subject-12.csv","legacy","Kafkaesque Koffka","3.2.6","mult","0","a","NA","NA","l","l","18676","NA","NA","55652","18676","2","2618","legacy","large","1024","2","48000","-16","experiment","9_7_mult_true.jpg","12","even","legacy","338153","NA","127535","NA","NA","1846","NA","1859","108859","338153","342931","57512","106161","1847","mousetracking operator preview effect","0","0","0","no","true","no","1680"
"neutral","undefined","1","undefined","undefined","white","no","legacy","legacy","legacy","0","relative","undefined","undefined","59","NA","0","0","0","0","0","0","0","75","75","0","15","0","no","03/31/19 19:05:54","A simple template for the mouse-tracking paradigm","yes","Experiment-FT.osexp","C:\Users\Kristen\Documents\opPreviewExperiment-master\procedure","no","mono","no","24","no","black","no","yes","1050","legacy","59","15","C:/Users/Kristen/Documents/opPreviewExperiment-master/procedure/subject-12.csv","legacy","Kafkaesque Koffka","3.2.6","mult","0","a","NA","NA","l","l","18676","NA","NA","55652","18676","2","1444","legacy","small","1024","2","48000","-16","experiment","8_2_mult_FNI.jpg","12","even","legacy","342968","NA","127535","NA","NA","1846","NA","1859","108859","342969","345391","57512","106161","1847","mousetracking operator preview effect","0","0","0","no","false","no","1680"
"negative","undefined","1","undefined","undefined","white","no","legacy","legacy","legacy","0","relative","undefined","undefined","60","NA","0","0","0","0","0","0","0","76","76","0","15","0","no","03/31/19 19:05:54","A simple template for the mouse-tracking paradigm","yes","Experiment-FT.osexp","C:\Users\Kristen\Documents\opPreviewExperiment-master\procedure","no","mono","no","24","no","black","no","yes","1050","legacy","60","15","C:/Users/Kristen/Documents/opPreviewExperiment-master/procedure/subject-12.csv","legacy","Kafkaesque Koffka","3.2.6","add","0","a","NA","NA","l","l","18676","NA","NA","55652","18676","2","5512","legacy","large","1024","2","48000","-16","experiment","9_7_add_FNI.jpg","12","even","legacy","345421","NA","127535","NA","NA","1846","NA","1859","108859","345421","352080","57512","106161","1847","mousetracking operator preview effect","0","0","0","no","false","no","1680"
"neutral","undefined","1","undefined","undefined","white","no","legacy","legacy","legacy","0","relative","undefined","undefined","61","NA","0","0","0","0","0","0","0","77","77","0","15","0","no","03/31/19 19:05:54","A simple template for the mouse-tracking paradigm","yes","Experiment-FT.osexp","C:\Users\Kristen\Documents\opPreviewExperiment-master\procedure","no","mono","no","24","no","black","no","yes","1050","legacy","61","15","C:/Users/Kristen/Documents/opPreviewExperiment-master/procedure/subject-12.csv","legacy","Kafkaesque Koffka","3.2.6","mult","0","l","NA","NA","l","l","18676","NA","NA","55652","18676","2","1582","legacy","small","1024","2","48000","-16","experiment","5_3_mult_true.jpg","12","even","legacy","352102","NA","127535","NA","NA","1846","NA","1859","108859","352102","354652","57512","106161","1847","mousetracking operator preview effect","0","0","0","no","true","no","1680"
"negative","undefined","1","undefined","undefined","white","no","legacy","legacy","legacy","0","relative","undefined","undefined","62","NA","0","0","0","0","0","0","0","78","78","0","15","0","no","03/31/19 19:05:54","A simple template for the mouse-tracking paradigm","yes","Experiment-FT.osexp","C:\Users\Kristen\Documents\opPreviewExperiment-master\procedure","no","mono","no","24","no","black","no","yes","1050","legacy","62","15","C:/Users/Kristen/Documents/opPreviewExperiment-master/procedure/subject-12.csv","legacy","Kafkaesque Koffka","3.2.6","mult","0","a","NA","NA","l","l","18676","NA","NA","55652","18676","2","2050","legacy","large","1024","2","48000","-16","experiment","4_9_mult_FNI.jpg","12","even","legacy","354674","NA","127535","NA","NA","1846","NA","1859","108859","354674","357866","57512","106161","1847","mousetracking operator preview effect","0","0","0","no","false","no","1680"
"neutral","undefined","1","undefined","undefined","white","no","legacy","legacy","legacy","0","relative","undefined","undefined","63","NA","0","0","0","0","0","0","0","79","79","0","15","0","no","03/31/19 19:05:54","A simple template for the mouse-tracking paradigm","yes","Experiment-FT.osexp","C:\Users\Kristen\Documents\opPreviewExperiment-master\procedure","no","mono","no","24","no","black","no","yes","1050","legacy","63","15","C:/Users/Kristen/Documents/opPreviewExperiment-master/procedure/subject-12.csv","legacy","Kafkaesque Koffka","3.2.6","mult","0","l","NA","NA","l","l","18676","NA","NA","55652","18676","2","1241","legacy","small","1024","2","48000","-16","experiment","5_3_mult_true.jpg","12","even","legacy","357894","NA","127535","NA","NA","1846","NA","1859","108859","357894","360108","57512","106161","1847","mousetracking operator preview effect","0","0","0","no","true","no","1680"
"negative","undefined","1","undefined","undefined","white","no","legacy","legacy","legacy","0","relative","undefined","undefined","64","NA","0","0","0","0","0","0","0","80","80","0","15","0","no","03/31/19 19:05:54","A simple template for the mouse-tracking paradigm","yes","Experiment-FT.osexp","C:\Users\Kristen\Documents\opPreviewExperiment-master\procedure","no","mono","no","24","no","black","no","yes","1050","legacy","64","15","C:/Users/Kristen/Documents/opPreviewExperiment-master/procedure/subject-12.csv","legacy","Kafkaesque Koffka","3.2.6","mult","0","l","NA","NA","l","l","18676","NA","NA","55652","18676","2","1566","legacy","small","1024","2","48000","-16","experiment","3_6_mult_true.jpg","12","even","legacy","360129","NA","127535","NA","NA","1846","NA","1859","108859","360129","362840","57512","106161","1847","mousetracking operator preview effect","0","0","0","no","true","no","1680"
"neutral","undefined","1","undefined","undefined","white","no","legacy","legacy","legacy","0","relative","undefined","undefined","65","NA","0","0","0","0","0","0","0","81","81","0","15","0","no","03/31/19 19:05:54","A simple template for the mouse-tracking paradigm","yes","Experiment-FT.osexp","C:\Users\Kristen\Documents\opPreviewExperiment-master\procedure","no","mono","no","24","no","black","no","yes","1050","legacy","65","15","C:/Users/Kristen/Documents/opPreviewExperiment-master/procedure/subject-12.csv","legacy","Kafkaesque Koffka","3.2.6","mult","0","a","NA","NA","l","l","18676","NA","NA","55652","18676","2","1908","legacy","large","1024","2","48000","-16","experiment","8_4_mult_FI.jpg","12","even","legacy","362867","NA","127535","NA","NA","1846","NA","1859","108859","362867","365752","57512","106161","1847","mousetracking operator preview effect","0","0","0","no","false","no","1680"
"negative","undefined","1","undefined","undefined","white","no","legacy","legacy","legacy","0","relative","undefined","undefined","66","NA","0","0","0","0","0","0","0","82","82","0","15","0","no","03/31/19 19:05:54","A simple template for the mouse-tracking paradigm","yes","Experiment-FT.osexp","C:\Users\Kristen\Documents\opPreviewExperiment-master\procedure","no","mono","no","24","no","black","no","yes","1050","legacy","66","15","C:/Users/Kristen/Documents/opPreviewExperiment-master/procedure/subject-12.csv","legacy","Kafkaesque Koffka","3.2.6","mult","0","a","NA","NA","l","l","18676","NA","NA","55652","18676","2","1493","legacy","large","1024","2","48000","-16","experiment","6_8_mult_FNI.jpg","12","even","legacy","365772","NA","127535","NA","NA","1846","NA","1859","108859","365772","368409","57512","106161","1847","mousetracking operator preview effect","0","0","0","no","false","no","1680"
"neutral","undefined","1","undefined","undefined","white","no","legacy","legacy","legacy","0","relative","undefined","undefined","67","NA","0","0","0","0","0","0","0","83","83","0","15","0","no","03/31/19 19:05:54","A simple template for the mouse-tracking paradigm","yes","Experiment-FT.osexp","C:\Users\Kristen\Documents\opPreviewExperiment-master\procedure","no","mono","no","24","no","black","no","yes","1050","legacy","67","15","C:/Users/Kristen/Documents/opPreviewExperiment-master/procedure/subject-12.csv","legacy","Kafkaesque Koffka","3.2.6","add","0","a","NA","NA","l","l","18676","NA","NA","55652","18676","2","1890","legacy","small","1024","2","48000","-16","experiment","8_2_add_FI.jpg","12","even","legacy","368430","NA","127535","NA","NA","1846","NA","1859","108859","368430","371297","57512","106161","1847","mousetracking operator preview effect","0","0","0","no","false","no","1680"
"negative","undefined","1","undefined","undefined","white","no","legacy","legacy","legacy","0","relative","undefined","undefined","68","NA","0","0","0","0","0","0","0","84","84","0","15","0","no","03/31/19 19:05:54","A simple template for the mouse-tracking paradigm","yes","Experiment-FT.osexp","C:\Users\Kristen\Documents\opPreviewExperiment-master\procedure","no","mono","no","24","no","black","no","yes","1050","legacy","68","15","C:/Users/Kristen/Documents/opPreviewExperiment-master/procedure/subject-12.csv","legacy","Kafkaesque Koffka","3.2.6","mult","0","l","NA","NA","l","l","18676","NA","NA","55652","18676","2","2560","legacy","small","1024","2","48000","-16","experiment","2_7_mult_true.jpg","12","even","legacy","371328","NA","127535","NA","NA","1846","NA","1859","108859","371328","375039","57512","106161","1847","mousetracking operator preview effect","0","0","0","no","true","no","1680"
"neutral","undefined","1","undefined","undefined","white","no","legacy","legacy","legacy","0","relative","undefined","undefined","69","NA","0","0","0","0","0","0","0","85","85","0","15","0","no","03/31/19 19:05:54","A simple template for the mouse-tracking paradigm","yes","Experiment-FT.osexp","C:\Users\Kristen\Documents\opPreviewExperiment-master\procedure","no","mono","no","24","no","black","no","yes","1050","legacy","69","15","C:/Users/Kristen/Documents/opPreviewExperiment-master/procedure/subject-12.csv","legacy","Kafkaesque Koffka","3.2.6","add","0","a","NA","NA","l","l","18676","NA","NA","55652","18676","2","3644","legacy","small","1024","2","48000","-16","experiment","8_2_add_FNI.jpg","12","even","legacy","375053","NA","127535","NA","NA","1846","NA","1859","108859","375053","379671","57512","106161","1847","mousetracking operator preview effect","0","0","0","no","false","no","1680"
"negative","undefined","1","undefined","undefined","white","no","legacy","legacy","legacy","0","relative","undefined","undefined","70","NA","0","0","0","0","0","0","0","86","86","0","15","0","no","03/31/19 19:05:54","A simple template for the mouse-tracking paradigm","yes","Experiment-FT.osexp","C:\Users\Kristen\Documents\opPreviewExperiment-master\procedure","no","mono","no","24","no","black","no","yes","1050","legacy","70","15","C:/Users/Kristen/Documents/opPreviewExperiment-master/procedure/subject-12.csv","legacy","Kafkaesque Koffka","3.2.6","mult","0","l","NA","NA","l","l","18676","NA","NA","55652","18676","2","2595","legacy","small","1024","2","48000","-16","experiment","8_2_mult_true.jpg","12","even","legacy","379700","NA","127535","NA","NA","1846","NA","1859","108859","379700","383429","57512","106161","1847","mousetracking operator preview effect","0","0","0","no","true","no","1680"
"negative","undefined","1","undefined","undefined","white","no","legacy","legacy","legacy","0","relative","undefined","undefined","71","NA","0","0","0","0","0","0","0","87","87","0","15","0","no","03/31/19 19:05:54","A simple template for the mouse-tracking paradigm","yes","Experiment-FT.osexp","C:\Users\Kristen\Documents\opPreviewExperiment-master\procedure","no","mono","no","24","no","black","no","yes","1050","legacy","71","15","C:/Users/Kristen/Documents/opPreviewExperiment-master/procedure/subject-12.csv","legacy","Kafkaesque Koffka","3.2.6","add","0","a","NA","NA","l","l","18676","NA","NA","55652","18676","2","2851","legacy","large","1024","2","48000","-16","experiment","9_7_add_FI.jpg","12","even","legacy","383457","NA","127535","NA","NA","1846","NA","1859","108859","383457","387455","57512","106161","1847","mousetracking operator preview effect","0","0","0","no","false","no","1680"
"negative","undefined","1","undefined","undefined","white","no","legacy","legacy","legacy","0","relative","undefined","undefined","72","NA","0","0","0","0","0","0","0","88","88","0","15","0","no","03/31/19 19:05:54","A simple template for the mouse-tracking paradigm","yes","Experiment-FT.osexp","C:\Users\Kristen\Documents\opPreviewExperiment-master\procedure","no","mono","no","24","no","black","no","yes","1050","legacy","72","15","C:/Users/Kristen/Documents/opPreviewExperiment-master/procedure/subject-12.csv","legacy","Kafkaesque Koffka","3.2.6","mult","0","l","NA","NA","l","l","18676","NA","NA","55652","18676","2","2291","legacy","large","1024","2","48000","-16","experiment","8_4_mult_true.jpg","12","even","legacy","387478","NA","127535","NA","NA","1846","NA","1859","108859","387478","390913","57512","106161","1847","mousetracking operator preview effect","0","0","0","no","true","no","1680"
"negative","undefined","1","undefined","undefined","white","no","legacy","legacy","legacy","0","relative","undefined","undefined","73","NA","0","0","0","0","0","0","0","89","89","0","15","0","no","03/31/19 19:05:54","A simple template for the mouse-tracking paradigm","yes","Experiment-FT.osexp","C:\Users\Kristen\Documents\opPreviewExperiment-master\procedure","no","mono","no","24","no","black","no","yes","1050","legacy","73","15","C:/Users/Kristen/Documents/opPreviewExperiment-master/procedure/subject-12.csv","legacy","Kafkaesque Koffka","3.2.6","add","0","a","NA","NA","l","l","18676","NA","NA","55652","18676","2","1472","legacy","small","1024","2","48000","-16","experiment","5_3_add_FI.jpg","12","even","legacy","390940","NA","127535","NA","NA","1846","NA","1859","108859","390940","393539","57512","106161","1847","mousetracking operator preview effect","0","0","0","no","false","no","1680"
"negative","undefined","1","undefined","undefined","white","no","legacy","legacy","legacy","0","relative","undefined","undefined","74","NA","0","0","0","0","0","0","0","90","90","0","15","0","no","03/31/19 19:05:54","A simple template for the mouse-tracking paradigm","yes","Experiment-FT.osexp","C:\Users\Kristen\Documents\opPreviewExperiment-master\procedure","no","mono","no","24","no","black","no","yes","1050","legacy","74","15","C:/Users/Kristen/Documents/opPreviewExperiment-master/procedure/subject-12.csv","legacy","Kafkaesque Koffka","3.2.6","add","0","l","NA","NA","l","l","18676","NA","NA","55652","18676","2","4035","legacy","large","1024","2","48000","-16","experiment","9_7_add_true.jpg","12","even","legacy","393566","NA","127535","NA","NA","1846","NA","1859","108859","393566","398749","57512","106161","1847","mousetracking operator preview effect","0","0","0","no","true","no","1680"
"negative","undefined","1","undefined","undefined","white","no","legacy","legacy","legacy","0","relative","undefined","undefined","75","NA","0","0","0","0","0","0","0","91","91","0","15","0","no","03/31/19 19:05:54","A simple template for the mouse-tracking paradigm","yes","Experiment-FT.osexp","C:\Users\Kristen\Documents\opPreviewExperiment-master\procedure","no","mono","no","24","no","black","no","yes","1050","legacy","75","15","C:/Users/Kristen/Documents/opPreviewExperiment-master/procedure/subject-12.csv","legacy","Kafkaesque Koffka","3.2.6","add","0","a","NA","NA","l","l","18676","NA","NA","55652","18676","2","2110","legacy","small","1024","2","48000","-16","experiment","2_7_add_FNI.jpg","12","even","legacy","398779","NA","127535","NA","NA","1846","NA","1859","108859","398779","402037","57512","106161","1847","mousetracking operator preview effect","0","0","0","no","false","no","1680"
"neutral","undefined","1","undefined","undefined","white","no","legacy","legacy","legacy","0","relative","undefined","undefined","76","NA","0","0","0","0","0","0","0","92","92","0","15","0","no","03/31/19 19:05:54","A simple template for the mouse-tracking paradigm","yes","Experiment-FT.osexp","C:\Users\Kristen\Documents\opPreviewExperiment-master\procedure","no","mono","no","24","no","black","no","yes","1050","legacy","76","15","C:/Users/Kristen/Documents/opPreviewExperiment-master/procedure/subject-12.csv","legacy","Kafkaesque Koffka","3.2.6","mult","0","l","NA","NA","l","l","18676","NA","NA","55652","18676","2","1620","legacy","large","1024","2","48000","-16","experiment","6_8_mult_true.jpg","12","even","legacy","402051","NA","127535","NA","NA","1846","NA","1859","108859","402051","404644","57512","106161","1847","mousetracking operator preview effect","0","0","0","no","true","no","1680"
"neutral","undefined","1","undefined","undefined","white","no","legacy","legacy","legacy","0","relative","undefined","undefined","77","NA","0","0","0","0","0","0","0","93","93","0","15","0","no","03/31/19 19:05:54","A simple template for the mouse-tracking paradigm","yes","Experiment-FT.osexp","C:\Users\Kristen\Documents\opPreviewExperiment-master\procedure","no","mono","no","24","no","black","no","yes","1050","legacy","77","15","C:/Users/Kristen/Documents/opPreviewExperiment-master/procedure/subject-12.csv","legacy","Kafkaesque Koffka","3.2.6","mult","0","l","NA","NA","l","l","18676","NA","NA","55652","18676","2","1540","legacy","small","1024","2","48000","-16","experiment","3_6_mult_true.jpg","12","even","legacy","404665","NA","127535","NA","NA","1846","NA","1859","108859","404665","407177","57512","106161","1847","mousetracking operator preview effect","0","0","0","no","true","no","1680"
"neutral","undefined","1","undefined","undefined","white","no","legacy","legacy","legacy","0","relative","undefined","undefined","78","NA","0","0","0","0","0","0","0","94","94","0","15","0","no","03/31/19 19:05:54","A simple template for the mouse-tracking paradigm","yes","Experiment-FT.osexp","C:\Users\Kristen\Documents\opPreviewExperiment-master\procedure","no","mono","no","24","no","black","no","yes","1050","legacy","78","15","C:/Users/Kristen/Documents/opPreviewExperiment-master/procedure/subject-12.csv","legacy","Kafkaesque Koffka","3.2.6","add","0","l","NA","NA","l","l","18676","NA","NA","55652","18676","2","2610","legacy","large","1024","2","48000","-16","experiment","4_9_add_true.jpg","12","even","legacy","407197","NA","127535","NA","NA","1846","NA","1859","108859","407197","410780","57512","106161","1847","mousetracking operator preview effect","0","0","0","no","true","no","1680"
"negative","undefined","1","undefined","undefined","white","no","legacy","legacy","legacy","0","relative","undefined","undefined","79","NA","0","0","0","0","0","0","0","95","95","0","15","0","no","03/31/19 19:05:54","A simple template for the mouse-tracking paradigm","yes","Experiment-FT.osexp","C:\Users\Kristen\Documents\opPreviewExperiment-master\procedure","no","mono","no","24","no","black","no","yes","1050","legacy","79","15","C:/Users/Kristen/Documents/opPreviewExperiment-master/procedure/subject-12.csv","legacy","Kafkaesque Koffka","3.2.6","mult","0","l","NA","NA","l","l","18676","NA","NA","55652","18676","2","1742","legacy","small","1024","2","48000","-16","experiment","2_7_mult_true.jpg","12","even","legacy","410804","NA","127535","NA","NA","1846","NA","1859","108859","410804","413693","57512","106161","1847","mousetracking operator preview effect","0","0","0","no","true","no","1680"
"negative","undefined","1","undefined","undefined","white","no","legacy","legacy","legacy","0","relative","undefined","undefined","80","NA","0","0","0","0","0","0","0","96","96","0","15","0","no","03/31/19 19:05:54","A simple template for the mouse-tracking paradigm","yes","Experiment-FT.osexp","C:\Users\Kristen\Documents\opPreviewExperiment-master\procedure","no","mono","no","24","no","black","no","yes","1050","legacy","80","15","C:/Users/Kristen/Documents/opPreviewExperiment-master/procedure/subject-12.csv","legacy","Kafkaesque Koffka","3.2.6","add","0","a","NA","NA","l","l","18676","NA","NA","55652","18676","2","3225","legacy","large","1024","2","48000","-16","experiment","4_9_add_FNI.jpg","12","even","legacy","413713","NA","127535","NA","NA","1846","NA","1859","108859","413713","418082","57512","106161","1847","mousetracking operator preview effect","0","0","0","no","false","no","1680"
"neutral","undefined","1","undefined","undefined","white","no","legacy","legacy","legacy","0","relative","undefined","undefined","81","NA","0","0","0","0","0","0","0","97","97","0","15","0","no","03/31/19 19:05:54","A simple template for the mouse-tracking paradigm","yes","Experiment-FT.osexp","C:\Users\Kristen\Documents\opPreviewExperiment-master\procedure","no","mono","no","24","no","black","no","yes","1050","legacy","81","15","C:/Users/Kristen/Documents/opPreviewExperiment-master/procedure/subject-12.csv","legacy","Kafkaesque Koffka","3.2.6","mult","0","l","NA","NA","l","l","18676","NA","NA","55652","18676","2","1983","legacy","large","1024","2","48000","-16","experiment","8_4_mult_true.jpg","12","even","legacy","418112","NA","127535","NA","NA","1846","NA","1859","108859","418112","421072","57512","106161","1847","mousetracking operator preview effect","0","0","0","no","true","no","1680"
"negative","undefined","1","undefined","undefined","white","no","legacy","legacy","legacy","0","relative","undefined","undefined","82","NA","0","0","0","0","0","0","0","98","98","0","15","0","no","03/31/19 19:05:54","A simple template for the mouse-tracking paradigm","yes","Experiment-FT.osexp","C:\Users\Kristen\Documents\opPreviewExperiment-master\procedure","no","mono","no","24","no","black","no","yes","1050","legacy","82","15","C:/Users/Kristen/Documents/opPreviewExperiment-master/procedure/subject-12.csv","legacy","Kafkaesque Koffka","3.2.6","mult","0","a","NA","NA","l","l","18676","NA","NA","55652","18676","2","2843","legacy","small","1024","2","48000","-16","experiment","5_3_mult_FI.jpg","12","even","legacy","421103","NA","127535","NA","NA","1846","NA","1859","108859","421103","425097","57512","106161","1847","mousetracking operator preview effect","0","0","0","no","false","no","1680"
"negative","undefined","1","undefined","undefined","white","no","legacy","legacy","legacy","0","relative","undefined","undefined","83","NA","0","0","0","0","0","0","0","99","99","0","15","0","no","03/31/19 19:05:54","A simple template for the mouse-tracking paradigm","yes","Experiment-FT.osexp","C:\Users\Kristen\Documents\opPreviewExperiment-master\procedure","no","mono","no","24","no","black","no","yes","1050","legacy","83","15","C:/Users/Kristen/Documents/opPreviewExperiment-master/procedure/subject-12.csv","legacy","Kafkaesque Koffka","3.2.6","add","0","a","NA","NA","l","l","18676","NA","NA","55652","18676","2","2580","legacy","large","1024","2","48000","-16","experiment","6_8_add_FI.jpg","12","even","legacy","425128","NA","127535","NA","NA","1846","NA","1859","108859","425128","428854","57512","106161","1847","mousetracking operator preview effect","0","0","0","no","false","no","1680"
"neutral","undefined","1","undefined","undefined","white","no","legacy","legacy","legacy","0","relative","undefined","undefined","84","NA","0","0","0","0","0","0","0","100","100","0","15","0","no","03/31/19 19:05:54","A simple template for the mouse-tracking paradigm","yes","Experiment-FT.osexp","C:\Users\Kristen\Documents\opPreviewExperiment-master\procedure","no","mono","no","24","no","black","no","yes","1050","legacy","84","15","C:/Users/Kristen/Documents/opPreviewExperiment-master/procedure/subject-12.csv","legacy","Kafkaesque Koffka","3.2.6","add","0","a","NA","NA","l","l","18676","NA","NA","55652","18676","2","2739","legacy","large","1024","2","48000","-16","experiment","4_9_add_FI.jpg","12","even","legacy","428874","NA","127535","NA","NA","1846","NA","1859","108859","428874","432581","57512","106161","1847","mousetracking operator preview effect","0","0","0","no","false","no","1680"
"negative","undefined","1","undefined","undefined","white","no","legacy","legacy","legacy","0","relative","undefined","undefined","85","NA","0","0","0","0","0","0","0","101","101","0","15","0","no","03/31/19 19:05:54","A simple template for the mouse-tracking paradigm","yes","Experiment-FT.osexp","C:\Users\Kristen\Documents\opPreviewExperiment-master\procedure","no","mono","no","24","no","black","no","yes","1050","legacy","85","15","C:/Users/Kristen/Documents/opPreviewExperiment-master/procedure/subject-12.csv","legacy","Kafkaesque Koffka","3.2.6","mult","0","l","NA","NA","l","l","18676","NA","NA","55652","18676","2","1186","legacy","small","1024","2","48000","-16","experiment","5_3_mult_true.jpg","12","even","legacy","432603","NA","127535","NA","NA","1846","NA","1859","108859","432603","434929","57512","106161","1847","mousetracking operator preview effect","0","0","0","no","true","no","1680"
"negative","undefined","1","undefined","undefined","white","no","legacy","legacy","legacy","0","relative","undefined","undefined","86","NA","0","0","0","0","0","0","0","102","102","0","15","0","no","03/31/19 19:05:54","A simple template for the mouse-tracking paradigm","yes","Experiment-FT.osexp","C:\Users\Kristen\Documents\opPreviewExperiment-master\procedure","no","mono","no","24","no","black","no","yes","1050","legacy","86","15","C:/Users/Kristen/Documents/opPreviewExperiment-master/procedure/subject-12.csv","legacy","Kafkaesque Koffka","3.2.6","add","0","a","NA","NA","l","l","18676","NA","NA","55652","18676","2","1495","legacy","small","1024","2","48000","-16","experiment","8_2_add_FI.jpg","12","even","legacy","434949","NA","127535","NA","NA","1846","NA","1859","108859","434949","437590","57512","106161","1847","mousetracking operator preview effect","0","0","0","no","false","no","1680"
"negative","undefined","1","undefined","undefined","white","no","legacy","legacy","legacy","0","relative","undefined","undefined","87","NA","0","0","0","0","0","0","0","103","103","0","15","0","no","03/31/19 19:05:54","A simple template for the mouse-tracking paradigm","yes","Experiment-FT.osexp","C:\Users\Kristen\Documents\opPreviewExperiment-master\procedure","no","mono","no","24","no","black","no","yes","1050","legacy","87","15","C:/Users/Kristen/Documents/opPreviewExperiment-master/procedure/subject-12.csv","legacy","Kafkaesque Koffka","3.2.6","add","0","l","NA","NA","l","l","18676","NA","NA","55652","18676","2","1726","legacy","small","1024","2","48000","-16","experiment","3_6_add_true.jpg","12","even","legacy","437603","NA","127535","NA","NA","1846","NA","1859","108859","437603","440472","57512","106161","1847","mousetracking operator preview effect","0","0","0","no","true","no","1680"
"negative","undefined","1","undefined","undefined","white","no","legacy","legacy","legacy","0","relative","undefined","undefined","88","NA","0","0","0","0","0","0","0","104","104","0","15","0","no","03/31/19 19:05:54","A simple template for the mouse-tracking paradigm","yes","Experiment-FT.osexp","C:\Users\Kristen\Documents\opPreviewExperiment-master\procedure","no","mono","no","24","no","black","no","yes","1050","legacy","88","15","C:/Users/Kristen/Documents/opPreviewExperiment-master/procedure/subject-12.csv","legacy","Kafkaesque Koffka","3.2.6","add","0","a","NA","NA","l","l","18676","NA","NA","55652","18676","2","1502","legacy","large","1024","2","48000","-16","experiment","8_4_add_FNI.jpg","12","even","legacy","440499","NA","127535","NA","NA","1846","NA","1859","108859","440499","443146","57512","106161","1847","mousetracking operator preview effect","0","0","0","no","false","no","1680"
"negative","undefined","1","undefined","undefined","white","no","legacy","legacy","legacy","0","relative","undefined","undefined","89","NA","0","0","0","0","0","0","0","105","105","0","15","0","no","03/31/19 19:05:54","A simple template for the mouse-tracking paradigm","yes","Experiment-FT.osexp","C:\Users\Kristen\Documents\opPreviewExperiment-master\procedure","no","mono","no","24","no","black","no","yes","1050","legacy","89","15","C:/Users/Kristen/Documents/opPreviewExperiment-master/procedure/subject-12.csv","legacy","Kafkaesque Koffka","3.2.6","add","0","a","NA","NA","l","l","18676","NA","NA","55652","18676","2","1429","legacy","small","1024","2","48000","-16","experiment","3_6_add_FNI.jpg","12","even","legacy","443169","NA","127535","NA","NA","1846","NA","1859","108859","443169","445749","57512","106161","1847","mousetracking operator preview effect","0","0","0","no","false","no","1680"
"neutral","undefined","1","undefined","undefined","white","no","legacy","legacy","legacy","0","relative","undefined","undefined","90","NA","0","0","0","0","0","0","0","106","106","0","15","0","no","03/31/19 19:05:54","A simple template for the mouse-tracking paradigm","yes","Experiment-FT.osexp","C:\Users\Kristen\Documents\opPreviewExperiment-master\procedure","no","mono","no","24","no","black","no","yes","1050","legacy","90","15","C:/Users/Kristen/Documents/opPreviewExperiment-master/procedure/subject-12.csv","legacy","Kafkaesque Koffka","3.2.6","mult","0","l","NA","NA","l","l","18676","NA","NA","55652","18676","2","5332","legacy","large","1024","2","48000","-16","experiment","9_7_mult_true.jpg","12","even","legacy","445770","NA","127535","NA","NA","1846","NA","1859","108859","445770","452081","57512","106161","1847","mousetracking operator preview effect","0","0","0","no","true","no","1680"
"negative","undefined","1","undefined","undefined","white","no","legacy","legacy","legacy","0","relative","undefined","undefined","91","NA","0","0","0","0","0","0","0","107","107","0","15","0","no","03/31/19 19:05:54","A simple template for the mouse-tracking paradigm","yes","Experiment-FT.osexp","C:\Users\Kristen\Documents\opPreviewExperiment-master\procedure","no","mono","no","24","no","black","no","yes","1050","legacy","91","15","C:/Users/Kristen/Documents/opPreviewExperiment-master/procedure/subject-12.csv","legacy","Kafkaesque Koffka","3.2.6","mult","0","a","NA","NA","l","l","18676","NA","NA","55652","18676","2","2459","legacy","small","1024","2","48000","-16","experiment","3_6_mult_FNI.jpg","12","even","legacy","452095","NA","127535","NA","NA","1846","NA","1859","108859","452095","455700","57512","106161","1847","mousetracking operator preview effect","0","0","0","no","false","no","1680"
"neutral","undefined","1","undefined","undefined","white","no","legacy","legacy","legacy","0","relative","undefined","undefined","92","NA","0","0","0","0","0","0","0","108","108","0","15","0","no","03/31/19 19:05:54","A simple template for the mouse-tracking paradigm","yes","Experiment-FT.osexp","C:\Users\Kristen\Documents\opPreviewExperiment-master\procedure","no","mono","no","24","no","black","no","yes","1050","legacy","92","15","C:/Users/Kristen/Documents/opPreviewExperiment-master/procedure/subject-12.csv","legacy","Kafkaesque Koffka","3.2.6","add","0","l","NA","NA","l","l","18676","NA","NA","55652","18676","2","3212","legacy","large","1024","2","48000","-16","experiment","9_7_add_true.jpg","12","even","legacy","455722","NA","127535","NA","NA","1846","NA","1859","108859","455722","459908","57512","106161","1847","mousetracking operator preview effect","0","0","0","no","true","no","1680"
