"SOAcondition","acc","accuracy","average_response_time","avg_rt","background","bidi","canvas_backend","clock_backend","color_backend","compensation","coordinates","correct","correct_instruction1","count_block1_sequence","count_block2_sequence","count_block_1","count_block_2","count_breakScreen","count_experiment","count_finish","count_instruction1","count_instruction2","count_keyboard_script","count_logger","count_practiceBlock","count_practice_sequence","count_setup_script","custom_cursor","datetime","description","disable_garbage_collection","experiment_file","experiment_path","font_bold","font_family","font_italic","font_size","font_underline","foreground","form_clicks","fullscreen","height","keyboard_backend","live_row","live_row_practiceBlock","logfile","mouse_backend","opensesame_codename","opensesame_version","operation","repeat_cycle","response","response_breakScreen","response_finish","response_instruction1","response_instruction2","response_time","response_time_breakScreen","response_time_finish","response_time_instruction1","response_time_instruction2","round_decimals","rt","sampler_backend","size","sound_buf_size","sound_channels","sound_freq","sound_sample_size","start","stimulus","subject_nr","subject_parity","synth_backend","time_block1_sequence","time_block2_sequence","time_block_1","time_block_2","time_breakScreen","time_experiment","time_finish","time_instruction1","time_instruction2","time_keyboard_script","time_logger","time_practiceBlock","time_practice_sequence","time_setup_script","title","total_correct","total_response_time","total_responses","transparent_variables","truth","uniform_coordinates","width"
"negative","undefined","0","undefined","undefined","white","no","legacy","legacy","legacy","0","relative","undefined","undefined","NA","NA","0","0","0","0","0","0","0","0","0","0","0","0","no","04/24/19 11:23:02","A simple template for the mouse-tracking paradigm","yes","Experiment-FT.osexp","C:\Users\Kristen\Documents\opPreviewExperiment-master\procedure","no","mono","no","24","no","black","no","yes","1050","legacy","0","0","C:/Users/Kristen/Documents/opPreviewExperiment-master/procedure/subject-20.csv","legacy","Kafkaesque Koffka","3.2.6","mult","0","l","NA","NA","a","NA","15450","NA","NA","15450","NA","2","0","legacy","NA","1024","2","48000","-16","experiment","0_3_mult_F.jpg","20","even","legacy","NA","NA","NA","NA","NA","1979","NA","1996","NA","17449","19629","17447","17449","1981","mousetracking operator preview effect","0","0","0","no","false","no","1680"
"neutral","undefined","1","undefined","undefined","white","no","legacy","legacy","legacy","0","relative","undefined","undefined","NA","NA","0","0","0","0","0","0","0","1","1","0","1","0","no","04/24/19 11:23:02","A simple template for the mouse-tracking paradigm","yes","Experiment-FT.osexp","C:\Users\Kristen\Documents\opPreviewExperiment-master\procedure","no","mono","no","24","no","black","no","yes","1050","legacy","1","1","C:/Users/Kristen/Documents/opPreviewExperiment-master/procedure/subject-20.csv","legacy","Kafkaesque Koffka","3.2.6","mult","0","a","NA","NA","a","NA","15450","NA","NA","15450","NA","2","1853","legacy","NA","1024","2","48000","-16","experiment","1_4_mult_F.jpg","20","even","legacy","NA","NA","NA","NA","NA","1979","NA","1996","NA","19685","22514","17447","19685","1981","mousetracking operator preview effect","0","0","0","no","false","no","1680"
"negative","undefined","1","undefined","undefined","white","no","legacy","legacy","legacy","0","relative","undefined","undefined","NA","NA","0","0","0","0","0","0","0","2","2","0","2","0","no","04/24/19 11:23:02","A simple template for the mouse-tracking paradigm","yes","Experiment-FT.osexp","C:\Users\Kristen\Documents\opPreviewExperiment-master\procedure","no","mono","no","24","no","black","no","yes","1050","legacy","2","2","C:/Users/Kristen/Documents/opPreviewExperiment-master/procedure/subject-20.csv","legacy","Kafkaesque Koffka","3.2.6","add","0","a","NA","NA","a","NA","15450","NA","NA","15450","NA","2","994","legacy","NA","1024","2","48000","-16","experiment","0_3_add_F.jpg","20","even","legacy","NA","NA","NA","NA","NA","1979","NA","1996","NA","22538","24676","17447","22538","1981","mousetracking operator preview effect","0","0","0","no","false","no","1680"
"negative","undefined","1","undefined","undefined","white","no","legacy","legacy","legacy","0","relative","undefined","undefined","NA","NA","0","0","0","0","0","0","0","3","3","0","3","0","no","04/24/19 11:23:02","A simple template for the mouse-tracking paradigm","yes","Experiment-FT.osexp","C:\Users\Kristen\Documents\opPreviewExperiment-master\procedure","no","mono","no","24","no","black","no","yes","1050","legacy","3","3","C:/Users/Kristen/Documents/opPreviewExperiment-master/procedure/subject-20.csv","legacy","Kafkaesque Koffka","3.2.6","mult","0","l","NA","NA","a","NA","15450","NA","NA","15450","NA","2","898","legacy","NA","1024","2","48000","-16","experiment","0_3_mult_T.jpg","20","even","legacy","NA","NA","NA","NA","NA","1979","NA","1996","NA","24697","26745","17447","24697","1981","mousetracking operator preview effect","0","0","0","no","true","no","1680"
"neutral","undefined","1","undefined","undefined","white","no","legacy","legacy","legacy","0","relative","undefined","undefined","NA","NA","0","0","0","0","0","0","0","4","4","0","4","0","no","04/24/19 11:23:02","A simple template for the mouse-tracking paradigm","yes","Experiment-FT.osexp","C:\Users\Kristen\Documents\opPreviewExperiment-master\procedure","no","mono","no","24","no","black","no","yes","1050","legacy","4","4","C:/Users/Kristen/Documents/opPreviewExperiment-master/procedure/subject-20.csv","legacy","Kafkaesque Koffka","3.2.6","add","0","a","NA","NA","a","NA","15450","NA","NA","15450","NA","2","922","legacy","NA","1024","2","48000","-16","experiment","0_3_add_F.jpg","20","even","legacy","NA","NA","NA","NA","NA","1979","NA","1996","NA","26776","28657","17447","26776","1981","mousetracking operator preview effect","0","0","0","no","false","no","1680"
"negative","undefined","1","undefined","undefined","white","no","legacy","legacy","legacy","0","relative","undefined","undefined","NA","NA","0","0","0","0","0","0","0","5","5","0","5","0","no","04/24/19 11:23:02","A simple template for the mouse-tracking paradigm","yes","Experiment-FT.osexp","C:\Users\Kristen\Documents\opPreviewExperiment-master\procedure","no","mono","no","24","no","black","no","yes","1050","legacy","5","5","C:/Users/Kristen/Documents/opPreviewExperiment-master/procedure/subject-20.csv","legacy","Kafkaesque Koffka","3.2.6","add","0","a","NA","NA","a","NA","15450","NA","NA","15450","NA","2","1879","legacy","NA","1024","2","48000","-16","experiment","1_4_add_F.jpg","20","even","legacy","NA","NA","NA","NA","NA","1979","NA","1996","NA","28679","31714","17447","28679","1981","mousetracking operator preview effect","0","0","0","no","false","no","1680"
"negative","undefined","1","undefined","undefined","white","no","legacy","legacy","legacy","0","relative","undefined","undefined","NA","NA","0","0","0","0","0","0","0","6","6","0","6","0","no","04/24/19 11:23:02","A simple template for the mouse-tracking paradigm","yes","Experiment-FT.osexp","C:\Users\Kristen\Documents\opPreviewExperiment-master\procedure","no","mono","no","24","no","black","no","yes","1050","legacy","6","6","C:/Users/Kristen/Documents/opPreviewExperiment-master/procedure/subject-20.csv","legacy","Kafkaesque Koffka","3.2.6","mult","0","a","NA","NA","a","NA","15450","NA","NA","15450","NA","2","1276","legacy","NA","1024","2","48000","-16","experiment","1_4_mult_F.jpg","20","even","legacy","NA","NA","NA","NA","NA","1979","NA","1996","NA","31735","34165","17447","31735","1981","mousetracking operator preview effect","0","0","0","no","false","no","1680"
"negative","undefined","1","undefined","undefined","white","no","legacy","legacy","legacy","0","relative","undefined","undefined","NA","NA","0","0","0","0","0","0","0","7","7","0","7","0","no","04/24/19 11:23:02","A simple template for the mouse-tracking paradigm","yes","Experiment-FT.osexp","C:\Users\Kristen\Documents\opPreviewExperiment-master\procedure","no","mono","no","24","no","black","no","yes","1050","legacy","7","7","C:/Users/Kristen/Documents/opPreviewExperiment-master/procedure/subject-20.csv","legacy","Kafkaesque Koffka","3.2.6","add","0","l","NA","NA","a","NA","15450","NA","NA","15450","NA","2","1213","legacy","NA","1024","2","48000","-16","experiment","0_3_add_T.jpg","20","even","legacy","NA","NA","NA","NA","NA","1979","NA","1996","NA","34186","36555","17447","34185","1981","mousetracking operator preview effect","0","0","0","no","true","no","1680"
"neutral","undefined","1","undefined","undefined","white","no","legacy","legacy","legacy","0","relative","undefined","undefined","NA","NA","0","0","0","0","0","0","0","8","8","0","8","0","no","04/24/19 11:23:02","A simple template for the mouse-tracking paradigm","yes","Experiment-FT.osexp","C:\Users\Kristen\Documents\opPreviewExperiment-master\procedure","no","mono","no","24","no","black","no","yes","1050","legacy","8","8","C:/Users/Kristen/Documents/opPreviewExperiment-master/procedure/subject-20.csv","legacy","Kafkaesque Koffka","3.2.6","add","0","l","NA","NA","a","NA","15450","NA","NA","15450","NA","2","701","legacy","NA","1024","2","48000","-16","experiment","0_3_add_T.jpg","20","even","legacy","NA","NA","NA","NA","NA","1979","NA","1996","NA","36570","38235","17447","36570","1981","mousetracking operator preview effect","0","0","0","no","true","no","1680"
"neutral","undefined","1","undefined","undefined","white","no","legacy","legacy","legacy","0","relative","undefined","undefined","NA","NA","0","0","0","0","0","0","0","9","9","0","9","0","no","04/24/19 11:23:02","A simple template for the mouse-tracking paradigm","yes","Experiment-FT.osexp","C:\Users\Kristen\Documents\opPreviewExperiment-master\procedure","no","mono","no","24","no","black","no","yes","1050","legacy","9","9","C:/Users/Kristen/Documents/opPreviewExperiment-master/procedure/subject-20.csv","legacy","Kafkaesque Koffka","3.2.6","add","0","l","NA","NA","a","NA","15450","NA","NA","15450","NA","2","1187","legacy","NA","1024","2","48000","-16","experiment","1_4_add_T.jpg","20","even","legacy","NA","NA","NA","NA","NA","1979","NA","1996","NA","38265","40426","17447","38265","1981","mousetracking operator preview effect","0","0","0","no","true","no","1680"
"neutral","undefined","1","undefined","undefined","white","no","legacy","legacy","legacy","0","relative","undefined","undefined","NA","NA","0","0","0","0","0","0","0","10","10","0","10","0","no","04/24/19 11:23:02","A simple template for the mouse-tracking paradigm","yes","Experiment-FT.osexp","C:\Users\Kristen\Documents\opPreviewExperiment-master\procedure","no","mono","no","24","no","black","no","yes","1050","legacy","10","10","C:/Users/Kristen/Documents/opPreviewExperiment-master/procedure/subject-20.csv","legacy","Kafkaesque Koffka","3.2.6","mult","0","a","NA","NA","a","NA","15450","NA","NA","15450","NA","2","1237","legacy","NA","1024","2","48000","-16","experiment","0_3_mult_F.jpg","20","even","legacy","NA","NA","NA","NA","NA","1979","NA","1996","NA","40454","42676","17447","40453","1981","mousetracking operator preview effect","0","0","0","no","false","no","1680"
"neutral","undefined","1","undefined","undefined","white","no","legacy","legacy","legacy","0","relative","undefined","undefined","NA","NA","0","0","0","0","0","0","0","11","11","0","11","0","no","04/24/19 11:23:02","A simple template for the mouse-tracking paradigm","yes","Experiment-FT.osexp","C:\Users\Kristen\Documents\opPreviewExperiment-master\procedure","no","mono","no","24","no","black","no","yes","1050","legacy","11","11","C:/Users/Kristen/Documents/opPreviewExperiment-master/procedure/subject-20.csv","legacy","Kafkaesque Koffka","3.2.6","add","0","a","NA","NA","a","NA","15450","NA","NA","15450","NA","2","2130","legacy","NA","1024","2","48000","-16","experiment","1_4_add_F.jpg","20","even","legacy","NA","NA","NA","NA","NA","1979","NA","1996","NA","42697","45805","17447","42697","1981","mousetracking operator preview effect","0","0","0","no","false","no","1680"
"neutral","undefined","1","undefined","undefined","white","no","legacy","legacy","legacy","0","relative","undefined","undefined","NA","NA","0","0","0","0","0","0","0","12","12","0","12","0","no","04/24/19 11:23:02","A simple template for the mouse-tracking paradigm","yes","Experiment-FT.osexp","C:\Users\Kristen\Documents\opPreviewExperiment-master\procedure","no","mono","no","24","no","black","no","yes","1050","legacy","12","12","C:/Users/Kristen/Documents/opPreviewExperiment-master/procedure/subject-20.csv","legacy","Kafkaesque Koffka","3.2.6","mult","0","l","NA","NA","a","NA","15450","NA","NA","15450","NA","2","973","legacy","NA","1024","2","48000","-16","experiment","1_4_mult_T.jpg","20","even","legacy","NA","NA","NA","NA","NA","1979","NA","1996","NA","45821","47770","17447","45820","1981","mousetracking operator preview effect","0","0","0","no","true","no","1680"
"neutral","undefined","0","undefined","undefined","white","no","legacy","legacy","legacy","0","relative","undefined","undefined","NA","NA","0","0","0","0","0","0","0","13","13","0","13","0","no","04/24/19 11:23:02","A simple template for the mouse-tracking paradigm","yes","Experiment-FT.osexp","C:\Users\Kristen\Documents\opPreviewExperiment-master\procedure","no","mono","no","24","no","black","no","yes","1050","legacy","13","13","C:/Users/Kristen/Documents/opPreviewExperiment-master/procedure/subject-20.csv","legacy","Kafkaesque Koffka","3.2.6","mult","0","a","NA","NA","a","NA","15450","NA","NA","15450","NA","2","644","legacy","NA","1024","2","48000","-16","experiment","0_3_mult_T.jpg","20","even","legacy","NA","NA","NA","NA","NA","1979","NA","1996","NA","47791","50436","17447","47791","1981","mousetracking operator preview effect","0","0","0","no","true","no","1680"
"negative","undefined","1","undefined","undefined","white","no","legacy","legacy","legacy","0","relative","undefined","undefined","NA","NA","0","0","0","0","0","0","0","14","14","0","14","0","no","04/24/19 11:23:02","A simple template for the mouse-tracking paradigm","yes","Experiment-FT.osexp","C:\Users\Kristen\Documents\opPreviewExperiment-master\procedure","no","mono","no","24","no","black","no","yes","1050","legacy","14","14","C:/Users/Kristen/Documents/opPreviewExperiment-master/procedure/subject-20.csv","legacy","Kafkaesque Koffka","3.2.6","add","0","l","NA","NA","a","NA","15450","NA","NA","15450","NA","2","3625","legacy","NA","1024","2","48000","-16","experiment","1_4_add_T.jpg","20","even","legacy","NA","NA","NA","NA","NA","1979","NA","1996","NA","50473","55241","17447","50472","1981","mousetracking operator preview effect","0","0","0","no","true","no","1680"
"negative","undefined","0","undefined","undefined","white","no","legacy","legacy","legacy","0","relative","undefined","undefined","NA","NA","0","0","0","0","0","0","0","15","15","0","15","0","no","04/24/19 11:23:02","A simple template for the mouse-tracking paradigm","yes","Experiment-FT.osexp","C:\Users\Kristen\Documents\opPreviewExperiment-master\procedure","no","mono","no","24","no","black","no","yes","1050","legacy","15","15","C:/Users/Kristen/Documents/opPreviewExperiment-master/procedure/subject-20.csv","legacy","Kafkaesque Koffka","3.2.6","mult","0","a","NA","NA","a","NA","15450","NA","NA","15450","NA","2","1358","legacy","NA","1024","2","48000","-16","experiment","1_4_mult_T.jpg","20","even","legacy","NA","NA","NA","NA","NA","1979","NA","1996","NA","55262","58772","17447","55262","1981","mousetracking operator preview effect","0","0","0","no","true","no","1680"
"neutral","undefined","1","undefined","undefined","white","no","legacy","legacy","legacy","0","relative","undefined","undefined","0","NA","0","0","0","0","0","0","0","16","16","0","15","0","no","04/24/19 11:23:02","A simple template for the mouse-tracking paradigm","yes","Experiment-FT.osexp","C:\Users\Kristen\Documents\opPreviewExperiment-master\procedure","no","mono","no","24","no","black","no","yes","1050","legacy","0","15","C:/Users/Kristen/Documents/opPreviewExperiment-master/procedure/subject-20.csv","legacy","Kafkaesque Koffka","3.2.6","mult","0","l","NA","NA","a","l","8871","NA","NA","15450","8871","2","5047","legacy","large","1024","2","48000","-16","experiment","4_9_mult_true.jpg","20","even","legacy","67671","NA","67667","NA","NA","1979","NA","1996","58795","67671","73699","17447","55262","1981","mousetracking operator preview effect","0","0","0","no","true","no","1680"
"negative","undefined","1","undefined","undefined","white","no","legacy","legacy","legacy","0","relative","undefined","undefined","1","NA","0","0","0","0","0","0","0","17","17","0","15","0","no","04/24/19 11:23:02","A simple template for the mouse-tracking paradigm","yes","Experiment-FT.osexp","C:\Users\Kristen\Documents\opPreviewExperiment-master\procedure","no","mono","no","24","no","black","no","yes","1050","legacy","1","15","C:/Users/Kristen/Documents/opPreviewExperiment-master/procedure/subject-20.csv","legacy","Kafkaesque Koffka","3.2.6","add","0","a","NA","NA","a","l","8871","NA","NA","15450","8871","2","1619","legacy","small","1024","2","48000","-16","experiment","2_7_add_FNI.jpg","20","even","legacy","73714","NA","67667","NA","NA","1979","NA","1996","58795","73715","76484","17447","55262","1981","mousetracking operator preview effect","0","0","0","no","false","no","1680"
"neutral","undefined","1","undefined","undefined","white","no","legacy","legacy","legacy","0","relative","undefined","undefined","2","NA","0","0","0","0","0","0","0","18","18","0","15","0","no","04/24/19 11:23:02","A simple template for the mouse-tracking paradigm","yes","Experiment-FT.osexp","C:\Users\Kristen\Documents\opPreviewExperiment-master\procedure","no","mono","no","24","no","black","no","yes","1050","legacy","2","15","C:/Users/Kristen/Documents/opPreviewExperiment-master/procedure/subject-20.csv","legacy","Kafkaesque Koffka","3.2.6","add","0","l","NA","NA","a","l","8871","NA","NA","15450","8871","2","1908","legacy","small","1024","2","48000","-16","experiment","3_6_add_true.jpg","20","even","legacy","76505","NA","67667","NA","NA","1979","NA","1996","58795","76505","79388","17447","55262","1981","mousetracking operator preview effect","0","0","0","no","true","no","1680"
"neutral","undefined","1","undefined","undefined","white","no","legacy","legacy","legacy","0","relative","undefined","undefined","3","NA","0","0","0","0","0","0","0","19","19","0","15","0","no","04/24/19 11:23:02","A simple template for the mouse-tracking paradigm","yes","Experiment-FT.osexp","C:\Users\Kristen\Documents\opPreviewExperiment-master\procedure","no","mono","no","24","no","black","no","yes","1050","legacy","3","15","C:/Users/Kristen/Documents/opPreviewExperiment-master/procedure/subject-20.csv","legacy","Kafkaesque Koffka","3.2.6","mult","0","l","NA","NA","a","l","8871","NA","NA","15450","8871","2","1125","legacy","small","1024","2","48000","-16","experiment","2_7_mult_true.jpg","20","even","legacy","79410","NA","67667","NA","NA","1979","NA","1996","58795","79410","81521","17447","55262","1981","mousetracking operator preview effect","0","0","0","no","true","no","1680"
"negative","undefined","1","undefined","undefined","white","no","legacy","legacy","legacy","0","relative","undefined","undefined","4","NA","0","0","0","0","0","0","0","20","20","0","15","0","no","04/24/19 11:23:02","A simple template for the mouse-tracking paradigm","yes","Experiment-FT.osexp","C:\Users\Kristen\Documents\opPreviewExperiment-master\procedure","no","mono","no","24","no","black","no","yes","1050","legacy","4","15","C:/Users/Kristen/Documents/opPreviewExperiment-master/procedure/subject-20.csv","legacy","Kafkaesque Koffka","3.2.6","add","0","a","NA","NA","a","l","8871","NA","NA","15450","8871","2","2031","legacy","small","1024","2","48000","-16","experiment","5_3_add_FI.jpg","20","even","legacy","81549","NA","67667","NA","NA","1979","NA","1996","58795","81549","84732","17447","55262","1981","mousetracking operator preview effect","0","0","0","no","false","no","1680"
"negative","undefined","1","undefined","undefined","white","no","legacy","legacy","legacy","0","relative","undefined","undefined","5","NA","0","0","0","0","0","0","0","21","21","0","15","0","no","04/24/19 11:23:02","A simple template for the mouse-tracking paradigm","yes","Experiment-FT.osexp","C:\Users\Kristen\Documents\opPreviewExperiment-master\procedure","no","mono","no","24","no","black","no","yes","1050","legacy","5","15","C:/Users/Kristen/Documents/opPreviewExperiment-master/procedure/subject-20.csv","legacy","Kafkaesque Koffka","3.2.6","add","0","l","NA","NA","a","l","8871","NA","NA","15450","8871","2","2190","legacy","large","1024","2","48000","-16","experiment","6_8_add_true.jpg","20","even","legacy","84753","NA","67667","NA","NA","1979","NA","1996","58795","84753","88088","17447","55262","1981","mousetracking operator preview effect","0","0","0","no","true","no","1680"
"neutral","undefined","1","undefined","undefined","white","no","legacy","legacy","legacy","0","relative","undefined","undefined","6","NA","0","0","0","0","0","0","0","22","22","0","15","0","no","04/24/19 11:23:02","A simple template for the mouse-tracking paradigm","yes","Experiment-FT.osexp","C:\Users\Kristen\Documents\opPreviewExperiment-master\procedure","no","mono","no","24","no","black","no","yes","1050","legacy","6","15","C:/Users/Kristen/Documents/opPreviewExperiment-master/procedure/subject-20.csv","legacy","Kafkaesque Koffka","3.2.6","mult","0","a","NA","NA","a","l","8871","NA","NA","15450","8871","2","4748","legacy","large","1024","2","48000","-16","experiment","9_7_mult_FNI.jpg","20","even","legacy","88103","NA","67667","NA","NA","1979","NA","1996","58795","88103","93829","17447","55262","1981","mousetracking operator preview effect","0","0","0","no","false","no","1680"
"negative","undefined","1","undefined","undefined","white","no","legacy","legacy","legacy","0","relative","undefined","undefined","7","NA","0","0","0","0","0","0","0","23","23","0","15","0","no","04/24/19 11:23:02","A simple template for the mouse-tracking paradigm","yes","Experiment-FT.osexp","C:\Users\Kristen\Documents\opPreviewExperiment-master\procedure","no","mono","no","24","no","black","no","yes","1050","legacy","7","15","C:/Users/Kristen/Documents/opPreviewExperiment-master/procedure/subject-20.csv","legacy","Kafkaesque Koffka","3.2.6","mult","0","l","NA","NA","a","l","8871","NA","NA","15450","8871","2","938","legacy","small","1024","2","48000","-16","experiment","2_7_mult_true.jpg","20","even","legacy","93850","NA","67667","NA","NA","1979","NA","1996","58795","93850","95928","17447","55262","1981","mousetracking operator preview effect","0","0","0","no","true","no","1680"
"negative","undefined","1","undefined","undefined","white","no","legacy","legacy","legacy","0","relative","undefined","undefined","8","NA","0","0","0","0","0","0","0","24","24","0","15","0","no","04/24/19 11:23:02","A simple template for the mouse-tracking paradigm","yes","Experiment-FT.osexp","C:\Users\Kristen\Documents\opPreviewExperiment-master\procedure","no","mono","no","24","no","black","no","yes","1050","legacy","8","15","C:/Users/Kristen/Documents/opPreviewExperiment-master/procedure/subject-20.csv","legacy","Kafkaesque Koffka","3.2.6","mult","0","l","NA","NA","a","l","8871","NA","NA","15450","8871","2","610","legacy","small","1024","2","48000","-16","experiment","2_7_mult_true.jpg","20","even","legacy","95948","NA","67667","NA","NA","1979","NA","1996","58795","95948","97710","17447","55262","1981","mousetracking operator preview effect","0","0","0","no","true","no","1680"
"negative","undefined","1","undefined","undefined","white","no","legacy","legacy","legacy","0","relative","undefined","undefined","9","NA","0","0","0","0","0","0","0","25","25","0","15","0","no","04/24/19 11:23:02","A simple template for the mouse-tracking paradigm","yes","Experiment-FT.osexp","C:\Users\Kristen\Documents\opPreviewExperiment-master\procedure","no","mono","no","24","no","black","no","yes","1050","legacy","9","15","C:/Users/Kristen/Documents/opPreviewExperiment-master/procedure/subject-20.csv","legacy","Kafkaesque Koffka","3.2.6","mult","0","a","NA","NA","a","l","8871","NA","NA","15450","8871","2","2502","legacy","small","1024","2","48000","-16","experiment","8_2_mult_FNI.jpg","20","even","legacy","97736","NA","67667","NA","NA","1979","NA","1996","58795","97736","101405","17447","55262","1981","mousetracking operator preview effect","0","0","0","no","false","no","1680"
"neutral","undefined","1","undefined","undefined","white","no","legacy","legacy","legacy","0","relative","undefined","undefined","10","NA","0","0","0","0","0","0","0","26","26","0","15","0","no","04/24/19 11:23:02","A simple template for the mouse-tracking paradigm","yes","Experiment-FT.osexp","C:\Users\Kristen\Documents\opPreviewExperiment-master\procedure","no","mono","no","24","no","black","no","yes","1050","legacy","10","15","C:/Users/Kristen/Documents/opPreviewExperiment-master/procedure/subject-20.csv","legacy","Kafkaesque Koffka","3.2.6","mult","0","a","NA","NA","a","l","8871","NA","NA","15450","8871","2","2845","legacy","large","1024","2","48000","-16","experiment","6_8_mult_FNI.jpg","20","even","legacy","101426","NA","67667","NA","NA","1979","NA","1996","58795","101426","105238","17447","55262","1981","mousetracking operator preview effect","0","0","0","no","false","no","1680"
"negative","undefined","1","undefined","undefined","white","no","legacy","legacy","legacy","0","relative","undefined","undefined","11","NA","0","0","0","0","0","0","0","27","27","0","15","0","no","04/24/19 11:23:02","A simple template for the mouse-tracking paradigm","yes","Experiment-FT.osexp","C:\Users\Kristen\Documents\opPreviewExperiment-master\procedure","no","mono","no","24","no","black","no","yes","1050","legacy","11","15","C:/Users/Kristen/Documents/opPreviewExperiment-master/procedure/subject-20.csv","legacy","Kafkaesque Koffka","3.2.6","add","0","a","NA","NA","a","l","8871","NA","NA","15450","8871","2","1556","legacy","large","1024","2","48000","-16","experiment","9_7_add_FNI.jpg","20","even","legacy","105263","NA","67667","NA","NA","1979","NA","1996","58795","105263","107944","17447","55262","1981","mousetracking operator preview effect","0","0","0","no","false","no","1680"
"negative","undefined","1","undefined","undefined","white","no","legacy","legacy","legacy","0","relative","undefined","undefined","12","NA","0","0","0","0","0","0","0","28","28","0","15","0","no","04/24/19 11:23:02","A simple template for the mouse-tracking paradigm","yes","Experiment-FT.osexp","C:\Users\Kristen\Documents\opPreviewExperiment-master\procedure","no","mono","no","24","no","black","no","yes","1050","legacy","12","15","C:/Users/Kristen/Documents/opPreviewExperiment-master/procedure/subject-20.csv","legacy","Kafkaesque Koffka","3.2.6","mult","0","l","NA","NA","a","l","8871","NA","NA","15450","8871","2","0","legacy","large","1024","2","48000","-16","experiment","4_9_mult_true.jpg","20","even","legacy","107966","NA","67667","NA","NA","1979","NA","1996","58795","107966","109109","17447","55262","1981","mousetracking operator preview effect","0","0","0","no","true","no","1680"
"negative","undefined","1","undefined","undefined","white","no","legacy","legacy","legacy","0","relative","undefined","undefined","13","NA","0","0","0","0","0","0","0","29","29","0","15","0","no","04/24/19 11:23:02","A simple template for the mouse-tracking paradigm","yes","Experiment-FT.osexp","C:\Users\Kristen\Documents\opPreviewExperiment-master\procedure","no","mono","no","24","no","black","no","yes","1050","legacy","13","15","C:/Users/Kristen/Documents/opPreviewExperiment-master/procedure/subject-20.csv","legacy","Kafkaesque Koffka","3.2.6","mult","0","a","NA","NA","a","l","8871","NA","NA","15450","8871","2","1711","legacy","small","1024","2","48000","-16","experiment","2_7_mult_FI.jpg","20","even","legacy","109136","NA","67667","NA","NA","1979","NA","1996","58795","109136","111988","17447","55262","1981","mousetracking operator preview effect","0","0","0","no","false","no","1680"
"neutral","undefined","1","undefined","undefined","white","no","legacy","legacy","legacy","0","relative","undefined","undefined","14","NA","0","0","0","0","0","0","0","30","30","0","15","0","no","04/24/19 11:23:02","A simple template for the mouse-tracking paradigm","yes","Experiment-FT.osexp","C:\Users\Kristen\Documents\opPreviewExperiment-master\procedure","no","mono","no","24","no","black","no","yes","1050","legacy","14","15","C:/Users/Kristen/Documents/opPreviewExperiment-master/procedure/subject-20.csv","legacy","Kafkaesque Koffka","3.2.6","mult","0","l","NA","NA","a","l","8871","NA","NA","15450","8871","2","814","legacy","large","1024","2","48000","-16","experiment","6_8_mult_true.jpg","20","even","legacy","112009","NA","67667","NA","NA","1979","NA","1996","58795","112009","113805","17447","55262","1981","mousetracking operator preview effect","0","0","0","no","true","no","1680"
"neutral","undefined","1","undefined","undefined","white","no","legacy","legacy","legacy","0","relative","undefined","undefined","15","NA","0","0","0","0","0","0","0","31","31","0","15","0","no","04/24/19 11:23:02","A simple template for the mouse-tracking paradigm","yes","Experiment-FT.osexp","C:\Users\Kristen\Documents\opPreviewExperiment-master\procedure","no","mono","no","24","no","black","no","yes","1050","legacy","15","15","C:/Users/Kristen/Documents/opPreviewExperiment-master/procedure/subject-20.csv","legacy","Kafkaesque Koffka","3.2.6","add","0","l","NA","NA","a","l","8871","NA","NA","15450","8871","2","988","legacy","small","1024","2","48000","-16","experiment","3_6_add_true.jpg","20","even","legacy","113826","NA","67667","NA","NA","1979","NA","1996","58795","113826","115774","17447","55262","1981","mousetracking operator preview effect","0","0","0","no","true","no","1680"
"negative","undefined","1","undefined","undefined","white","no","legacy","legacy","legacy","0","relative","undefined","undefined","16","NA","0","0","0","0","0","0","0","32","32","0","15","0","no","04/24/19 11:23:02","A simple template for the mouse-tracking paradigm","yes","Experiment-FT.osexp","C:\Users\Kristen\Documents\opPreviewExperiment-master\procedure","no","mono","no","24","no","black","no","yes","1050","legacy","16","15","C:/Users/Kristen/Documents/opPreviewExperiment-master/procedure/subject-20.csv","legacy","Kafkaesque Koffka","3.2.6","add","0","l","NA","NA","a","l","8871","NA","NA","15450","8871","2","845","legacy","small","1024","2","48000","-16","experiment","3_6_add_true.jpg","20","even","legacy","115795","NA","67667","NA","NA","1979","NA","1996","58795","115795","117791","17447","55262","1981","mousetracking operator preview effect","0","0","0","no","true","no","1680"
"neutral","undefined","0","undefined","undefined","white","no","legacy","legacy","legacy","0","relative","undefined","undefined","17","NA","0","0","0","0","0","0","0","33","33","0","15","0","no","04/24/19 11:23:02","A simple template for the mouse-tracking paradigm","yes","Experiment-FT.osexp","C:\Users\Kristen\Documents\opPreviewExperiment-master\procedure","no","mono","no","24","no","black","no","yes","1050","legacy","17","15","C:/Users/Kristen/Documents/opPreviewExperiment-master/procedure/subject-20.csv","legacy","Kafkaesque Koffka","3.2.6","add","0","a","NA","NA","a","l","8871","NA","NA","15450","8871","2","0","legacy","small","1024","2","48000","-16","experiment","8_2_add_true.jpg","20","even","legacy","117813","NA","67667","NA","NA","1979","NA","1996","58795","117813","119819","17447","55262","1981","mousetracking operator preview effect","0","0","0","no","true","no","1680"
"negative","undefined","1","undefined","undefined","white","no","legacy","legacy","legacy","0","relative","undefined","undefined","18","NA","0","0","0","0","0","0","0","34","34","0","15","0","no","04/24/19 11:23:02","A simple template for the mouse-tracking paradigm","yes","Experiment-FT.osexp","C:\Users\Kristen\Documents\opPreviewExperiment-master\procedure","no","mono","no","24","no","black","no","yes","1050","legacy","18","15","C:/Users/Kristen/Documents/opPreviewExperiment-master/procedure/subject-20.csv","legacy","Kafkaesque Koffka","3.2.6","add","0","l","NA","NA","a","l","8871","NA","NA","15450","8871","2","1440","legacy","large","1024","2","48000","-16","experiment","4_9_add_true.jpg","20","even","legacy","119855","NA","67667","NA","NA","1979","NA","1996","58795","119855","122456","17447","55262","1981","mousetracking operator preview effect","0","0","0","no","true","no","1680"
"neutral","undefined","1","undefined","undefined","white","no","legacy","legacy","legacy","0","relative","undefined","undefined","19","NA","0","0","0","0","0","0","0","35","35","0","15","0","no","04/24/19 11:23:02","A simple template for the mouse-tracking paradigm","yes","Experiment-FT.osexp","C:\Users\Kristen\Documents\opPreviewExperiment-master\procedure","no","mono","no","24","no","black","no","yes","1050","legacy","19","15","C:/Users/Kristen/Documents/opPreviewExperiment-master/procedure/subject-20.csv","legacy","Kafkaesque Koffka","3.2.6","add","0","l","NA","NA","a","l","8871","NA","NA","15450","8871","2","1122","legacy","small","1024","2","48000","-16","experiment","5_3_add_true.jpg","20","even","legacy","122489","NA","67667","NA","NA","1979","NA","1996","58795","122489","124599","17447","55262","1981","mousetracking operator preview effect","0","0","0","no","true","no","1680"
"neutral","undefined","1","undefined","undefined","white","no","legacy","legacy","legacy","0","relative","undefined","undefined","20","NA","0","0","0","0","0","0","0","36","36","0","15","0","no","04/24/19 11:23:02","A simple template for the mouse-tracking paradigm","yes","Experiment-FT.osexp","C:\Users\Kristen\Documents\opPreviewExperiment-master\procedure","no","mono","no","24","no","black","no","yes","1050","legacy","20","15","C:/Users/Kristen/Documents/opPreviewExperiment-master/procedure/subject-20.csv","legacy","Kafkaesque Koffka","3.2.6","add","0","a","NA","NA","a","l","8871","NA","NA","15450","8871","2","3046","legacy","small","1024","2","48000","-16","experiment","8_2_add_FNI.jpg","20","even","legacy","124613","NA","67667","NA","NA","1979","NA","1996","58795","124613","128639","17447","55262","1981","mousetracking operator preview effect","0","0","0","no","false","no","1680"
"neutral","undefined","0","undefined","undefined","white","no","legacy","legacy","legacy","0","relative","undefined","undefined","21","NA","0","0","0","0","0","0","0","37","37","0","15","0","no","04/24/19 11:23:02","A simple template for the mouse-tracking paradigm","yes","Experiment-FT.osexp","C:\Users\Kristen\Documents\opPreviewExperiment-master\procedure","no","mono","no","24","no","black","no","yes","1050","legacy","21","15","C:/Users/Kristen/Documents/opPreviewExperiment-master/procedure/subject-20.csv","legacy","Kafkaesque Koffka","3.2.6","mult","0","l","NA","NA","a","l","8871","NA","NA","15450","8871","2","2239","legacy","small","1024","2","48000","-16","experiment","3_6_mult_FNI.jpg","20","even","legacy","128653","NA","67667","NA","NA","1979","NA","1996","58795","128653","132886","17447","55262","1981","mousetracking operator preview effect","0","0","0","no","false","no","1680"
"negative","undefined","1","undefined","undefined","white","no","legacy","legacy","legacy","0","relative","undefined","undefined","22","NA","0","0","0","0","0","0","0","38","38","0","15","0","no","04/24/19 11:23:02","A simple template for the mouse-tracking paradigm","yes","Experiment-FT.osexp","C:\Users\Kristen\Documents\opPreviewExperiment-master\procedure","no","mono","no","24","no","black","no","yes","1050","legacy","22","15","C:/Users/Kristen/Documents/opPreviewExperiment-master/procedure/subject-20.csv","legacy","Kafkaesque Koffka","3.2.6","add","0","l","NA","NA","a","l","8871","NA","NA","15450","8871","2","1352","legacy","large","1024","2","48000","-16","experiment","9_7_add_true.jpg","20","even","legacy","132913","NA","67667","NA","NA","1979","NA","1996","58795","132913","135414","17447","55262","1981","mousetracking operator preview effect","0","0","0","no","true","no","1680"
"neutral","undefined","1","undefined","undefined","white","no","legacy","legacy","legacy","0","relative","undefined","undefined","23","NA","0","0","0","0","0","0","0","39","39","0","15","0","no","04/24/19 11:23:02","A simple template for the mouse-tracking paradigm","yes","Experiment-FT.osexp","C:\Users\Kristen\Documents\opPreviewExperiment-master\procedure","no","mono","no","24","no","black","no","yes","1050","legacy","23","15","C:/Users/Kristen/Documents/opPreviewExperiment-master/procedure/subject-20.csv","legacy","Kafkaesque Koffka","3.2.6","mult","0","a","NA","NA","a","l","8871","NA","NA","15450","8871","2","2754","legacy","small","1024","2","48000","-16","experiment","3_6_mult_FI.jpg","20","even","legacy","135435","NA","67667","NA","NA","1979","NA","1996","58795","135435","139170","17447","55262","1981","mousetracking operator preview effect","0","0","0","no","false","no","1680"
"negative","undefined","0","undefined","undefined","white","no","legacy","legacy","legacy","0","relative","undefined","undefined","24","NA","0","0","0","0","0","0","0","40","40","0","15","0","no","04/24/19 11:23:02","A simple template for the mouse-tracking paradigm","yes","Experiment-FT.osexp","C:\Users\Kristen\Documents\opPreviewExperiment-master\procedure","no","mono","no","24","no","black","no","yes","1050","legacy","24","15","C:/Users/Kristen/Documents/opPreviewExperiment-master/procedure/subject-20.csv","legacy","Kafkaesque Koffka","3.2.6","add","0","l","NA","NA","a","l","8871","NA","NA","15450","8871","2","1807","legacy","small","1024","2","48000","-16","experiment","2_7_add_FI.jpg","20","even","legacy","139194","NA","67667","NA","NA","1979","NA","1996","58795","139194","143138","17447","55262","1981","mousetracking operator preview effect","0","0","0","no","false","no","1680"
"neutral","undefined","1","undefined","undefined","white","no","legacy","legacy","legacy","0","relative","undefined","undefined","25","NA","0","0","0","0","0","0","0","41","41","0","15","0","no","04/24/19 11:23:02","A simple template for the mouse-tracking paradigm","yes","Experiment-FT.osexp","C:\Users\Kristen\Documents\opPreviewExperiment-master\procedure","no","mono","no","24","no","black","no","yes","1050","legacy","25","15","C:/Users/Kristen/Documents/opPreviewExperiment-master/procedure/subject-20.csv","legacy","Kafkaesque Koffka","3.2.6","add","0","l","NA","NA","a","l","8871","NA","NA","15450","8871","2","2121","legacy","small","1024","2","48000","-16","experiment","2_7_add_true.jpg","20","even","legacy","143158","NA","67667","NA","NA","1979","NA","1996","58795","143158","146226","17447","55262","1981","mousetracking operator preview effect","0","0","0","no","true","no","1680"
"neutral","undefined","1","undefined","undefined","white","no","legacy","legacy","legacy","0","relative","undefined","undefined","26","NA","0","0","0","0","0","0","0","42","42","0","15","0","no","04/24/19 11:23:02","A simple template for the mouse-tracking paradigm","yes","Experiment-FT.osexp","C:\Users\Kristen\Documents\opPreviewExperiment-master\procedure","no","mono","no","24","no","black","no","yes","1050","legacy","26","15","C:/Users/Kristen/Documents/opPreviewExperiment-master/procedure/subject-20.csv","legacy","Kafkaesque Koffka","3.2.6","add","0","a","NA","NA","a","l","8871","NA","NA","15450","8871","2","1690","legacy","small","1024","2","48000","-16","experiment","8_2_add_FI.jpg","20","even","legacy","146249","NA","67667","NA","NA","1979","NA","1996","58795","146249","148881","17447","55262","1981","mousetracking operator preview effect","0","0","0","no","false","no","1680"
"negative","undefined","1","undefined","undefined","white","no","legacy","legacy","legacy","0","relative","undefined","undefined","27","NA","0","0","0","0","0","0","0","43","43","0","15","0","no","04/24/19 11:23:02","A simple template for the mouse-tracking paradigm","yes","Experiment-FT.osexp","C:\Users\Kristen\Documents\opPreviewExperiment-master\procedure","no","mono","no","24","no","black","no","yes","1050","legacy","27","15","C:/Users/Kristen/Documents/opPreviewExperiment-master/procedure/subject-20.csv","legacy","Kafkaesque Koffka","3.2.6","add","0","l","NA","NA","a","l","8871","NA","NA","15450","8871","2","1408","legacy","large","1024","2","48000","-16","experiment","8_4_add_true.jpg","20","even","legacy","148902","NA","67667","NA","NA","1979","NA","1996","58795","148902","151426","17447","55262","1981","mousetracking operator preview effect","0","0","0","no","true","no","1680"
"neutral","undefined","1","undefined","undefined","white","no","legacy","legacy","legacy","0","relative","undefined","undefined","28","NA","0","0","0","0","0","0","0","44","44","0","15","0","no","04/24/19 11:23:02","A simple template for the mouse-tracking paradigm","yes","Experiment-FT.osexp","C:\Users\Kristen\Documents\opPreviewExperiment-master\procedure","no","mono","no","24","no","black","no","yes","1050","legacy","28","15","C:/Users/Kristen/Documents/opPreviewExperiment-master/procedure/subject-20.csv","legacy","Kafkaesque Koffka","3.2.6","mult","0","a","NA","NA","a","l","8871","NA","NA","15450","8871","2","886","legacy","small","1024","2","48000","-16","experiment","5_3_mult_FI.jpg","20","even","legacy","151443","NA","67667","NA","NA","1979","NA","1996","58795","151443","153311","17447","55262","1981","mousetracking operator preview effect","0","0","0","no","false","no","1680"
"negative","undefined","1","undefined","undefined","white","no","legacy","legacy","legacy","0","relative","undefined","undefined","29","NA","0","0","0","0","0","0","0","45","45","0","15","0","no","04/24/19 11:23:02","A simple template for the mouse-tracking paradigm","yes","Experiment-FT.osexp","C:\Users\Kristen\Documents\opPreviewExperiment-master\procedure","no","mono","no","24","no","black","no","yes","1050","legacy","29","15","C:/Users/Kristen/Documents/opPreviewExperiment-master/procedure/subject-20.csv","legacy","Kafkaesque Koffka","3.2.6","mult","0","a","NA","NA","a","l","8871","NA","NA","15450","8871","2","848","legacy","small","1024","2","48000","-16","experiment","8_2_mult_FI.jpg","20","even","legacy","153338","NA","67667","NA","NA","1979","NA","1996","58795","153338","155339","17447","55262","1981","mousetracking operator preview effect","0","0","0","no","false","no","1680"
"negative","undefined","1","undefined","undefined","white","no","legacy","legacy","legacy","0","relative","undefined","undefined","30","NA","0","0","0","0","0","0","0","46","46","0","15","0","no","04/24/19 11:23:02","A simple template for the mouse-tracking paradigm","yes","Experiment-FT.osexp","C:\Users\Kristen\Documents\opPreviewExperiment-master\procedure","no","mono","no","24","no","black","no","yes","1050","legacy","30","15","C:/Users/Kristen/Documents/opPreviewExperiment-master/procedure/subject-20.csv","legacy","Kafkaesque Koffka","3.2.6","mult","0","a","NA","NA","a","l","8871","NA","NA","15450","8871","2","1303","legacy","large","1024","2","48000","-16","experiment","8_4_mult_FI.jpg","20","even","legacy","155353","NA","67667","NA","NA","1979","NA","1996","58795","155353","157802","17447","55262","1981","mousetracking operator preview effect","0","0","0","no","false","no","1680"
"neutral","undefined","1","undefined","undefined","white","no","legacy","legacy","legacy","0","relative","undefined","undefined","31","NA","0","0","0","0","0","0","0","47","47","0","15","0","no","04/24/19 11:23:02","A simple template for the mouse-tracking paradigm","yes","Experiment-FT.osexp","C:\Users\Kristen\Documents\opPreviewExperiment-master\procedure","no","mono","no","24","no","black","no","yes","1050","legacy","31","15","C:/Users/Kristen/Documents/opPreviewExperiment-master/procedure/subject-20.csv","legacy","Kafkaesque Koffka","3.2.6","mult","0","l","NA","NA","a","l","8871","NA","NA","15450","8871","2","690","legacy","large","1024","2","48000","-16","experiment","6_8_mult_true.jpg","20","even","legacy","157835","NA","67667","NA","NA","1979","NA","1996","58795","157835","159499","17447","55262","1981","mousetracking operator preview effect","0","0","0","no","true","no","1680"
"negative","undefined","1","undefined","undefined","white","no","legacy","legacy","legacy","0","relative","undefined","undefined","32","NA","0","0","0","0","0","0","0","48","48","0","15","0","no","04/24/19 11:23:02","A simple template for the mouse-tracking paradigm","yes","Experiment-FT.osexp","C:\Users\Kristen\Documents\opPreviewExperiment-master\procedure","no","mono","no","24","no","black","no","yes","1050","legacy","32","15","C:/Users/Kristen/Documents/opPreviewExperiment-master/procedure/subject-20.csv","legacy","Kafkaesque Koffka","3.2.6","add","0","a","NA","NA","a","l","8871","NA","NA","15450","8871","2","881","legacy","small","1024","2","48000","-16","experiment","8_2_add_FNI.jpg","20","even","legacy","159522","NA","67667","NA","NA","1979","NA","1996","58795","159522","161550","17447","55262","1981","mousetracking operator preview effect","0","0","0","no","false","no","1680"
"negative","undefined","1","undefined","undefined","white","no","legacy","legacy","legacy","0","relative","undefined","undefined","33","NA","0","0","0","0","0","0","0","49","49","0","15","0","no","04/24/19 11:23:02","A simple template for the mouse-tracking paradigm","yes","Experiment-FT.osexp","C:\Users\Kristen\Documents\opPreviewExperiment-master\procedure","no","mono","no","24","no","black","no","yes","1050","legacy","33","15","C:/Users/Kristen/Documents/opPreviewExperiment-master/procedure/subject-20.csv","legacy","Kafkaesque Koffka","3.2.6","add","0","a","NA","NA","a","l","8871","NA","NA","15450","8871","2","1287","legacy","small","1024","2","48000","-16","experiment","3_6_add_FNI.jpg","20","even","legacy","161572","NA","67667","NA","NA","1979","NA","1996","58795","161572","164018","17447","55262","1981","mousetracking operator preview effect","0","0","0","no","false","no","1680"
"negative","undefined","1","undefined","undefined","white","no","legacy","legacy","legacy","0","relative","undefined","undefined","34","NA","0","0","0","0","0","0","0","50","50","0","15","0","no","04/24/19 11:23:02","A simple template for the mouse-tracking paradigm","yes","Experiment-FT.osexp","C:\Users\Kristen\Documents\opPreviewExperiment-master\procedure","no","mono","no","24","no","black","no","yes","1050","legacy","34","15","C:/Users/Kristen/Documents/opPreviewExperiment-master/procedure/subject-20.csv","legacy","Kafkaesque Koffka","3.2.6","mult","0","l","NA","NA","a","l","8871","NA","NA","15450","8871","2","1002","legacy","large","1024","2","48000","-16","experiment","9_7_mult_true.jpg","20","even","legacy","164039","NA","67667","NA","NA","1979","NA","1996","58795","164039","166191","17447","55262","1981","mousetracking operator preview effect","0","0","0","no","true","no","1680"
"neutral","undefined","1","undefined","undefined","white","no","legacy","legacy","legacy","0","relative","undefined","undefined","35","NA","0","0","0","0","0","0","0","51","51","0","15","0","no","04/24/19 11:23:02","A simple template for the mouse-tracking paradigm","yes","Experiment-FT.osexp","C:\Users\Kristen\Documents\opPreviewExperiment-master\procedure","no","mono","no","24","no","black","no","yes","1050","legacy","35","15","C:/Users/Kristen/Documents/opPreviewExperiment-master/procedure/subject-20.csv","legacy","Kafkaesque Koffka","3.2.6","mult","0","l","NA","NA","a","l","8871","NA","NA","15450","8871","2","724","legacy","large","1024","2","48000","-16","experiment","9_7_mult_true.jpg","20","even","legacy","166222","NA","67667","NA","NA","1979","NA","1996","58795","166222","167917","17447","55262","1981","mousetracking operator preview effect","0","0","0","no","true","no","1680"
"neutral","undefined","1","undefined","undefined","white","no","legacy","legacy","legacy","0","relative","undefined","undefined","36","NA","0","0","0","0","0","0","0","52","52","0","15","0","no","04/24/19 11:23:02","A simple template for the mouse-tracking paradigm","yes","Experiment-FT.osexp","C:\Users\Kristen\Documents\opPreviewExperiment-master\procedure","no","mono","no","24","no","black","no","yes","1050","legacy","36","15","C:/Users/Kristen/Documents/opPreviewExperiment-master/procedure/subject-20.csv","legacy","Kafkaesque Koffka","3.2.6","add","0","l","NA","NA","a","l","8871","NA","NA","15450","8871","2","1208","legacy","large","1024","2","48000","-16","experiment","4_9_add_true.jpg","20","even","legacy","167946","NA","67667","NA","NA","1979","NA","1996","58795","167946","170132","17447","55262","1981","mousetracking operator preview effect","0","0","0","no","true","no","1680"
"negative","undefined","1","undefined","undefined","white","no","legacy","legacy","legacy","0","relative","undefined","undefined","37","NA","0","0","0","0","0","0","0","53","53","0","15","0","no","04/24/19 11:23:02","A simple template for the mouse-tracking paradigm","yes","Experiment-FT.osexp","C:\Users\Kristen\Documents\opPreviewExperiment-master\procedure","no","mono","no","24","no","black","no","yes","1050","legacy","37","15","C:/Users/Kristen/Documents/opPreviewExperiment-master/procedure/subject-20.csv","legacy","Kafkaesque Koffka","3.2.6","mult","0","a","NA","NA","a","l","8871","NA","NA","15450","8871","2","680","legacy","small","1024","2","48000","-16","experiment","5_3_mult_FI.jpg","20","even","legacy","170163","NA","67667","NA","NA","1979","NA","1996","58795","170163","171994","17447","55262","1981","mousetracking operator preview effect","0","0","0","no","false","no","1680"
"neutral","undefined","1","undefined","undefined","white","no","legacy","legacy","legacy","0","relative","undefined","undefined","38","NA","0","0","0","0","0","0","0","54","54","0","15","0","no","04/24/19 11:23:02","A simple template for the mouse-tracking paradigm","yes","Experiment-FT.osexp","C:\Users\Kristen\Documents\opPreviewExperiment-master\procedure","no","mono","no","24","no","black","no","yes","1050","legacy","38","15","C:/Users/Kristen/Documents/opPreviewExperiment-master/procedure/subject-20.csv","legacy","Kafkaesque Koffka","3.2.6","add","0","a","NA","NA","a","l","8871","NA","NA","15450","8871","2","1450","legacy","large","1024","2","48000","-16","experiment","9_7_add_FI.jpg","20","even","legacy","172017","NA","67667","NA","NA","1979","NA","1996","58795","172017","174455","17447","55262","1981","mousetracking operator preview effect","0","0","0","no","false","no","1680"
"negative","undefined","1","undefined","undefined","white","no","legacy","legacy","legacy","0","relative","undefined","undefined","39","NA","0","0","0","0","0","0","0","55","55","0","15","0","no","04/24/19 11:23:02","A simple template for the mouse-tracking paradigm","yes","Experiment-FT.osexp","C:\Users\Kristen\Documents\opPreviewExperiment-master\procedure","no","mono","no","24","no","black","no","yes","1050","legacy","39","15","C:/Users/Kristen/Documents/opPreviewExperiment-master/procedure/subject-20.csv","legacy","Kafkaesque Koffka","3.2.6","add","0","a","NA","NA","a","l","8871","NA","NA","15450","8871","2","772","legacy","large","1024","2","48000","-16","experiment","9_7_add_FI.jpg","20","even","legacy","174475","NA","67667","NA","NA","1979","NA","1996","58795","174475","176377","17447","55262","1981","mousetracking operator preview effect","0","0","0","no","false","no","1680"
"neutral","undefined","1","undefined","undefined","white","no","legacy","legacy","legacy","0","relative","undefined","undefined","40","NA","0","0","0","0","0","0","0","56","56","0","15","0","no","04/24/19 11:23:02","A simple template for the mouse-tracking paradigm","yes","Experiment-FT.osexp","C:\Users\Kristen\Documents\opPreviewExperiment-master\procedure","no","mono","no","24","no","black","no","yes","1050","legacy","40","15","C:/Users/Kristen/Documents/opPreviewExperiment-master/procedure/subject-20.csv","legacy","Kafkaesque Koffka","3.2.6","add","0","l","NA","NA","a","l","8871","NA","NA","15450","8871","2","1162","legacy","large","1024","2","48000","-16","experiment","4_9_add_true.jpg","20","even","legacy","176402","NA","67667","NA","NA","1979","NA","1996","58795","176402","178544","17447","55262","1981","mousetracking operator preview effect","0","0","0","no","true","no","1680"
"negative","undefined","1","undefined","undefined","white","no","legacy","legacy","legacy","0","relative","undefined","undefined","41","NA","0","0","0","0","0","0","0","57","57","0","15","0","no","04/24/19 11:23:02","A simple template for the mouse-tracking paradigm","yes","Experiment-FT.osexp","C:\Users\Kristen\Documents\opPreviewExperiment-master\procedure","no","mono","no","24","no","black","no","yes","1050","legacy","41","15","C:/Users/Kristen/Documents/opPreviewExperiment-master/procedure/subject-20.csv","legacy","Kafkaesque Koffka","3.2.6","add","0","l","NA","NA","a","l","8871","NA","NA","15450","8871","2","698","legacy","large","1024","2","48000","-16","experiment","8_4_add_true.jpg","20","even","legacy","178566","NA","67667","NA","NA","1979","NA","1996","58795","178566","180420","17447","55262","1981","mousetracking operator preview effect","0","0","0","no","true","no","1680"
"neutral","undefined","1","undefined","undefined","white","no","legacy","legacy","legacy","0","relative","undefined","undefined","42","NA","0","0","0","0","0","0","0","58","58","0","15","0","no","04/24/19 11:23:02","A simple template for the mouse-tracking paradigm","yes","Experiment-FT.osexp","C:\Users\Kristen\Documents\opPreviewExperiment-master\procedure","no","mono","no","24","no","black","no","yes","1050","legacy","42","15","C:/Users/Kristen/Documents/opPreviewExperiment-master/procedure/subject-20.csv","legacy","Kafkaesque Koffka","3.2.6","add","0","l","NA","NA","a","l","8871","NA","NA","15450","8871","2","1079","legacy","large","1024","2","48000","-16","experiment","9_7_add_true.jpg","20","even","legacy","180434","NA","67667","NA","NA","1979","NA","1996","58795","180434","182489","17447","55262","1981","mousetracking operator preview effect","0","0","0","no","true","no","1680"
"negative","undefined","1","undefined","undefined","white","no","legacy","legacy","legacy","0","relative","undefined","undefined","43","NA","0","0","0","0","0","0","0","59","59","0","15","0","no","04/24/19 11:23:02","A simple template for the mouse-tracking paradigm","yes","Experiment-FT.osexp","C:\Users\Kristen\Documents\opPreviewExperiment-master\procedure","no","mono","no","24","no","black","no","yes","1050","legacy","43","15","C:/Users/Kristen/Documents/opPreviewExperiment-master/procedure/subject-20.csv","legacy","Kafkaesque Koffka","3.2.6","mult","0","a","NA","NA","a","l","8871","NA","NA","15450","8871","2","1994","legacy","large","1024","2","48000","-16","experiment","6_8_mult_FNI.jpg","20","even","legacy","182509","NA","67667","NA","NA","1979","NA","1996","58795","182509","185650","17447","55262","1981","mousetracking operator preview effect","0","0","0","no","false","no","1680"
"neutral","undefined","1","undefined","undefined","white","no","legacy","legacy","legacy","0","relative","undefined","undefined","44","NA","0","0","0","0","0","0","0","60","60","0","15","0","no","04/24/19 11:23:02","A simple template for the mouse-tracking paradigm","yes","Experiment-FT.osexp","C:\Users\Kristen\Documents\opPreviewExperiment-master\procedure","no","mono","no","24","no","black","no","yes","1050","legacy","44","15","C:/Users/Kristen/Documents/opPreviewExperiment-master/procedure/subject-20.csv","legacy","Kafkaesque Koffka","3.2.6","add","0","a","NA","NA","a","l","8871","NA","NA","15450","8871","2","1519","legacy","small","1024","2","48000","-16","experiment","2_7_add_FNI.jpg","20","even","legacy","185664","NA","67667","NA","NA","1979","NA","1996","58795","185664","188168","17447","55262","1981","mousetracking operator preview effect","0","0","0","no","false","no","1680"
"negative","undefined","1","undefined","undefined","white","no","legacy","legacy","legacy","0","relative","undefined","undefined","45","NA","0","0","0","0","0","0","0","61","61","0","15","0","no","04/24/19 11:23:02","A simple template for the mouse-tracking paradigm","yes","Experiment-FT.osexp","C:\Users\Kristen\Documents\opPreviewExperiment-master\procedure","no","mono","no","24","no","black","no","yes","1050","legacy","45","15","C:/Users/Kristen/Documents/opPreviewExperiment-master/procedure/subject-20.csv","legacy","Kafkaesque Koffka","3.2.6","mult","0","a","NA","NA","a","l","8871","NA","NA","15450","8871","2","5772","legacy","large","1024","2","48000","-16","experiment","9_7_mult_FI.jpg","20","even","legacy","188196","NA","67667","NA","NA","1979","NA","1996","58795","188196","195127","17447","55262","1981","mousetracking operator preview effect","0","0","0","no","false","no","1680"
"negative","undefined","0","undefined","undefined","white","no","legacy","legacy","legacy","0","relative","undefined","undefined","46","NA","0","0","0","0","0","0","0","62","62","0","15","0","no","04/24/19 11:23:02","A simple template for the mouse-tracking paradigm","yes","Experiment-FT.osexp","C:\Users\Kristen\Documents\opPreviewExperiment-master\procedure","no","mono","no","24","no","black","no","yes","1050","legacy","46","15","C:/Users/Kristen/Documents/opPreviewExperiment-master/procedure/subject-20.csv","legacy","Kafkaesque Koffka","3.2.6","mult","0","a","NA","NA","a","l","8871","NA","NA","15450","8871","2","1182","legacy","small","1024","2","48000","-16","experiment","5_3_mult_true.jpg","20","even","legacy","195149","NA","67667","NA","NA","1979","NA","1996","58795","195149","198489","17447","55262","1981","mousetracking operator preview effect","0","0","0","no","true","no","1680"
"neutral","undefined","1","undefined","undefined","white","no","legacy","legacy","legacy","0","relative","undefined","undefined","47","NA","0","0","0","0","0","0","0","63","63","0","15","0","no","04/24/19 11:23:02","A simple template for the mouse-tracking paradigm","yes","Experiment-FT.osexp","C:\Users\Kristen\Documents\opPreviewExperiment-master\procedure","no","mono","no","24","no","black","no","yes","1050","legacy","47","15","C:/Users/Kristen/Documents/opPreviewExperiment-master/procedure/subject-20.csv","legacy","Kafkaesque Koffka","3.2.6","add","0","a","NA","NA","a","l","8871","NA","NA","15450","8871","2","5111","legacy","large","1024","2","48000","-16","experiment","8_4_add_FI.jpg","20","even","legacy","198529","NA","67667","NA","NA","1979","NA","1996","58795","198530","204626","17447","55262","1981","mousetracking operator preview effect","0","0","0","no","false","no","1680"
"negative","undefined","1","undefined","undefined","white","no","legacy","legacy","legacy","0","relative","undefined","undefined","48","NA","0","0","0","0","0","0","0","64","64","0","15","0","no","04/24/19 11:23:02","A simple template for the mouse-tracking paradigm","yes","Experiment-FT.osexp","C:\Users\Kristen\Documents\opPreviewExperiment-master\procedure","no","mono","no","24","no","black","no","yes","1050","legacy","48","15","C:/Users/Kristen/Documents/opPreviewExperiment-master/procedure/subject-20.csv","legacy","Kafkaesque Koffka","3.2.6","add","0","a","NA","NA","a","l","8871","NA","NA","15450","8871","2","898","legacy","large","1024","2","48000","-16","experiment","4_9_add_FI.jpg","20","even","legacy","204646","NA","67667","NA","NA","1979","NA","1996","58795","204646","206685","17447","55262","1981","mousetracking operator preview effect","0","0","0","no","false","no","1680"
"neutral","undefined","1","undefined","undefined","white","no","legacy","legacy","legacy","0","relative","undefined","undefined","49","NA","0","0","0","0","0","0","0","65","65","0","15","0","no","04/24/19 11:23:02","A simple template for the mouse-tracking paradigm","yes","Experiment-FT.osexp","C:\Users\Kristen\Documents\opPreviewExperiment-master\procedure","no","mono","no","24","no","black","no","yes","1050","legacy","49","15","C:/Users/Kristen/Documents/opPreviewExperiment-master/procedure/subject-20.csv","legacy","Kafkaesque Koffka","3.2.6","add","0","l","NA","NA","a","l","8871","NA","NA","15450","8871","2","1066","legacy","large","1024","2","48000","-16","experiment","8_4_add_true.jpg","20","even","legacy","206712","NA","67667","NA","NA","1979","NA","1996","58795","206712","208754","17447","55262","1981","mousetracking operator preview effect","0","0","0","no","true","no","1680"
"neutral","undefined","1","undefined","undefined","white","no","legacy","legacy","legacy","0","relative","undefined","undefined","50","NA","0","0","0","0","0","0","0","66","66","0","15","0","no","04/24/19 11:23:02","A simple template for the mouse-tracking paradigm","yes","Experiment-FT.osexp","C:\Users\Kristen\Documents\opPreviewExperiment-master\procedure","no","mono","no","24","no","black","no","yes","1050","legacy","50","15","C:/Users/Kristen/Documents/opPreviewExperiment-master/procedure/subject-20.csv","legacy","Kafkaesque Koffka","3.2.6","add","0","a","NA","NA","a","l","8871","NA","NA","15450","8871","2","1136","legacy","small","1024","2","48000","-16","experiment","3_6_add_FNI.jpg","20","even","legacy","208775","NA","67667","NA","NA","1979","NA","1996","58795","208775","210880","17447","55262","1981","mousetracking operator preview effect","0","0","0","no","false","no","1680"
"neutral","undefined","1","undefined","undefined","white","no","legacy","legacy","legacy","0","relative","undefined","undefined","51","NA","0","0","0","0","0","0","0","67","67","0","15","0","no","04/24/19 11:23:02","A simple template for the mouse-tracking paradigm","yes","Experiment-FT.osexp","C:\Users\Kristen\Documents\opPreviewExperiment-master\procedure","no","mono","no","24","no","black","no","yes","1050","legacy","51","15","C:/Users/Kristen/Documents/opPreviewExperiment-master/procedure/subject-20.csv","legacy","Kafkaesque Koffka","3.2.6","add","0","a","NA","NA","a","l","8871","NA","NA","15450","8871","2","1866","legacy","small","1024","2","48000","-16","experiment","3_6_add_FI.jpg","20","even","legacy","210903","NA","67667","NA","NA","1979","NA","1996","58795","210903","213746","17447","55262","1981","mousetracking operator preview effect","0","0","0","no","false","no","1680"
"negative","undefined","1","undefined","undefined","white","no","legacy","legacy","legacy","0","relative","undefined","undefined","52","NA","0","0","0","0","0","0","0","68","68","0","15","0","no","04/24/19 11:23:02","A simple template for the mouse-tracking paradigm","yes","Experiment-FT.osexp","C:\Users\Kristen\Documents\opPreviewExperiment-master\procedure","no","mono","no","24","no","black","no","yes","1050","legacy","52","15","C:/Users/Kristen/Documents/opPreviewExperiment-master/procedure/subject-20.csv","legacy","Kafkaesque Koffka","3.2.6","mult","0","a","NA","NA","a","l","8871","NA","NA","15450","8871","2","1012","legacy","small","1024","2","48000","-16","experiment","2_7_mult_FNI.jpg","20","even","legacy","213770","NA","67667","NA","NA","1979","NA","1996","58795","213770","215939","17447","55262","1981","mousetracking operator preview effect","0","0","0","no","false","no","1680"
"neutral","undefined","1","undefined","undefined","white","no","legacy","legacy","legacy","0","relative","undefined","undefined","53","NA","0","0","0","0","0","0","0","69","69","0","15","0","no","04/24/19 11:23:02","A simple template for the mouse-tracking paradigm","yes","Experiment-FT.osexp","C:\Users\Kristen\Documents\opPreviewExperiment-master\procedure","no","mono","no","24","no","black","no","yes","1050","legacy","53","15","C:/Users/Kristen/Documents/opPreviewExperiment-master/procedure/subject-20.csv","legacy","Kafkaesque Koffka","3.2.6","add","0","a","NA","NA","a","l","8871","NA","NA","15450","8871","2","5710","legacy","large","1024","2","48000","-16","experiment","6_8_add_FNI.jpg","20","even","legacy","215960","NA","67667","NA","NA","1979","NA","1996","58795","215960","222649","17447","55262","1981","mousetracking operator preview effect","0","0","0","no","false","no","1680"
"neutral","undefined","1","undefined","undefined","white","no","legacy","legacy","legacy","0","relative","undefined","undefined","54","NA","0","0","0","0","0","0","0","70","70","0","15","0","no","04/24/19 11:23:02","A simple template for the mouse-tracking paradigm","yes","Experiment-FT.osexp","C:\Users\Kristen\Documents\opPreviewExperiment-master\procedure","no","mono","no","24","no","black","no","yes","1050","legacy","54","15","C:/Users/Kristen/Documents/opPreviewExperiment-master/procedure/subject-20.csv","legacy","Kafkaesque Koffka","3.2.6","mult","0","a","NA","NA","a","l","8871","NA","NA","15450","8871","2","1949","legacy","large","1024","2","48000","-16","experiment","8_4_mult_FNI.jpg","20","even","legacy","222671","NA","67667","NA","NA","1979","NA","1996","58795","222671","225601","17447","55262","1981","mousetracking operator preview effect","0","0","0","no","false","no","1680"
"neutral","undefined","0","undefined","undefined","white","no","legacy","legacy","legacy","0","relative","undefined","undefined","55","NA","0","0","0","0","0","0","0","71","71","0","15","0","no","04/24/19 11:23:02","A simple template for the mouse-tracking paradigm","yes","Experiment-FT.osexp","C:\Users\Kristen\Documents\opPreviewExperiment-master\procedure","no","mono","no","24","no","black","no","yes","1050","legacy","55","15","C:/Users/Kristen/Documents/opPreviewExperiment-master/procedure/subject-20.csv","legacy","Kafkaesque Koffka","3.2.6","add","0","a","NA","NA","a","l","8871","NA","NA","15450","8871","2","1116","legacy","large","1024","2","48000","-16","experiment","6_8_add_true.jpg","20","even","legacy","225623","NA","67667","NA","NA","1979","NA","1996","58795","225623","228734","17447","55262","1981","mousetracking operator preview effect","0","0","0","no","true","no","1680"
"neutral","undefined","1","undefined","undefined","white","no","legacy","legacy","legacy","0","relative","undefined","undefined","56","NA","0","0","0","0","0","0","0","72","72","0","15","0","no","04/24/19 11:23:02","A simple template for the mouse-tracking paradigm","yes","Experiment-FT.osexp","C:\Users\Kristen\Documents\opPreviewExperiment-master\procedure","no","mono","no","24","no","black","no","yes","1050","legacy","56","15","C:/Users/Kristen/Documents/opPreviewExperiment-master/procedure/subject-20.csv","legacy","Kafkaesque Koffka","3.2.6","add","0","a","NA","NA","a","l","8871","NA","NA","15450","8871","2","1945","legacy","large","1024","2","48000","-16","experiment","9_7_add_FNI.jpg","20","even","legacy","228770","NA","67667","NA","NA","1979","NA","1996","58795","228770","231711","17447","55262","1981","mousetracking operator preview effect","0","0","0","no","false","no","1680"
"neutral","undefined","1","undefined","undefined","white","no","legacy","legacy","legacy","0","relative","undefined","undefined","57","NA","0","0","0","0","0","0","0","73","73","0","15","0","no","04/24/19 11:23:02","A simple template for the mouse-tracking paradigm","yes","Experiment-FT.osexp","C:\Users\Kristen\Documents\opPreviewExperiment-master\procedure","no","mono","no","24","no","black","no","yes","1050","legacy","57","15","C:/Users/Kristen/Documents/opPreviewExperiment-master/procedure/subject-20.csv","legacy","Kafkaesque Koffka","3.2.6","mult","0","l","NA","NA","a","l","8871","NA","NA","15450","8871","2","981","legacy","large","1024","2","48000","-16","experiment","8_4_mult_true.jpg","20","even","legacy","231732","NA","67667","NA","NA","1979","NA","1996","58795","231732","233694","17447","55262","1981","mousetracking operator preview effect","0","0","0","no","true","no","1680"
"negative","undefined","1","undefined","undefined","white","no","legacy","legacy","legacy","0","relative","undefined","undefined","58","NA","0","0","0","0","0","0","0","74","74","0","15","0","no","04/24/19 11:23:02","A simple template for the mouse-tracking paradigm","yes","Experiment-FT.osexp","C:\Users\Kristen\Documents\opPreviewExperiment-master\procedure","no","mono","no","24","no","black","no","yes","1050","legacy","58","15","C:/Users/Kristen/Documents/opPreviewExperiment-master/procedure/subject-20.csv","legacy","Kafkaesque Koffka","3.2.6","add","0","l","NA","NA","a","l","8871","NA","NA","15450","8871","2","1104","legacy","large","1024","2","48000","-16","experiment","9_7_add_true.jpg","20","even","legacy","233717","NA","67667","NA","NA","1979","NA","1996","58795","233717","235988","17447","55262","1981","mousetracking operator preview effect","0","0","0","no","true","no","1680"
"negative","undefined","1","undefined","undefined","white","no","legacy","legacy","legacy","0","relative","undefined","undefined","59","NA","0","0","0","0","0","0","0","75","75","0","15","0","no","04/24/19 11:23:02","A simple template for the mouse-tracking paradigm","yes","Experiment-FT.osexp","C:\Users\Kristen\Documents\opPreviewExperiment-master\procedure","no","mono","no","24","no","black","no","yes","1050","legacy","59","15","C:/Users/Kristen/Documents/opPreviewExperiment-master/procedure/subject-20.csv","legacy","Kafkaesque Koffka","3.2.6","mult","0","a","NA","NA","a","l","8871","NA","NA","15450","8871","2","2800","legacy","large","1024","2","48000","-16","experiment","4_9_mult_FNI.jpg","20","even","legacy","236019","NA","67667","NA","NA","1979","NA","1996","58795","236019","239971","17447","55262","1981","mousetracking operator preview effect","0","0","0","no","false","no","1680"
"negative","undefined","1","undefined","undefined","white","no","legacy","legacy","legacy","0","relative","undefined","undefined","60","NA","0","0","0","0","0","0","0","76","76","0","15","0","no","04/24/19 11:23:02","A simple template for the mouse-tracking paradigm","yes","Experiment-FT.osexp","C:\Users\Kristen\Documents\opPreviewExperiment-master\procedure","no","mono","no","24","no","black","no","yes","1050","legacy","60","15","C:/Users/Kristen/Documents/opPreviewExperiment-master/procedure/subject-20.csv","legacy","Kafkaesque Koffka","3.2.6","add","0","l","NA","NA","a","l","8871","NA","NA","15450","8871","2","1788","legacy","small","1024","2","48000","-16","experiment","3_6_add_true.jpg","20","even","legacy","239993","NA","67667","NA","NA","1979","NA","1996","58795","239993","242929","17447","55262","1981","mousetracking operator preview effect","0","0","0","no","true","no","1680"
"neutral","undefined","1","undefined","undefined","white","no","legacy","legacy","legacy","0","relative","undefined","undefined","61","NA","0","0","0","0","0","0","0","77","77","0","15","0","no","04/24/19 11:23:02","A simple template for the mouse-tracking paradigm","yes","Experiment-FT.osexp","C:\Users\Kristen\Documents\opPreviewExperiment-master\procedure","no","mono","no","24","no","black","no","yes","1050","legacy","61","15","C:/Users/Kristen/Documents/opPreviewExperiment-master/procedure/subject-20.csv","legacy","Kafkaesque Koffka","3.2.6","add","0","l","NA","NA","a","l","8871","NA","NA","15450","8871","2","1688","legacy","large","1024","2","48000","-16","experiment","9_7_add_true.jpg","20","even","legacy","242951","NA","67667","NA","NA","1979","NA","1996","58795","242951","245621","17447","55262","1981","mousetracking operator preview effect","0","0","0","no","true","no","1680"
"negative","undefined","1","undefined","undefined","white","no","legacy","legacy","legacy","0","relative","undefined","undefined","62","NA","0","0","0","0","0","0","0","78","78","0","15","0","no","04/24/19 11:23:02","A simple template for the mouse-tracking paradigm","yes","Experiment-FT.osexp","C:\Users\Kristen\Documents\opPreviewExperiment-master\procedure","no","mono","no","24","no","black","no","yes","1050","legacy","62","15","C:/Users/Kristen/Documents/opPreviewExperiment-master/procedure/subject-20.csv","legacy","Kafkaesque Koffka","3.2.6","mult","0","a","NA","NA","a","l","8871","NA","NA","15450","8871","2","7137","legacy","small","1024","2","48000","-16","experiment","3_6_mult_FNI.jpg","20","even","legacy","245646","NA","67667","NA","NA","1979","NA","1996","58795","245646","253933","17447","55262","1981","mousetracking operator preview effect","0","0","0","no","false","no","1680"
"neutral","undefined","1","undefined","undefined","white","no","legacy","legacy","legacy","0","relative","undefined","undefined","63","NA","0","0","0","0","0","0","0","79","79","0","15","0","no","04/24/19 11:23:02","A simple template for the mouse-tracking paradigm","yes","Experiment-FT.osexp","C:\Users\Kristen\Documents\opPreviewExperiment-master\procedure","no","mono","no","24","no","black","no","yes","1050","legacy","63","15","C:/Users/Kristen/Documents/opPreviewExperiment-master/procedure/subject-20.csv","legacy","Kafkaesque Koffka","3.2.6","mult","0","l","NA","NA","a","l","8871","NA","NA","15450","8871","2","636","legacy","small","1024","2","48000","-16","experiment","3_6_mult_true.jpg","20","even","legacy","253954","NA","67667","NA","NA","1979","NA","1996","58795","253954","255565","17447","55262","1981","mousetracking operator preview effect","0","0","0","no","true","no","1680"
"neutral","undefined","1","undefined","undefined","white","no","legacy","legacy","legacy","0","relative","undefined","undefined","64","NA","0","0","0","0","0","0","0","80","80","0","15","0","no","04/24/19 11:23:02","A simple template for the mouse-tracking paradigm","yes","Experiment-FT.osexp","C:\Users\Kristen\Documents\opPreviewExperiment-master\procedure","no","mono","no","24","no","black","no","yes","1050","legacy","64","15","C:/Users/Kristen/Documents/opPreviewExperiment-master/procedure/subject-20.csv","legacy","Kafkaesque Koffka","3.2.6","mult","0","l","NA","NA","a","l","8871","NA","NA","15450","8871","2","854","legacy","large","1024","2","48000","-16","experiment","9_7_mult_true.jpg","20","even","legacy","255594","NA","67667","NA","NA","1979","NA","1996","58795","255594","257425","17447","55262","1981","mousetracking operator preview effect","0","0","0","no","true","no","1680"
"neutral","undefined","0","undefined","undefined","white","no","legacy","legacy","legacy","0","relative","undefined","undefined","65","NA","0","0","0","0","0","0","0","81","81","0","15","0","no","04/24/19 11:23:02","A simple template for the mouse-tracking paradigm","yes","Experiment-FT.osexp","C:\Users\Kristen\Documents\opPreviewExperiment-master\procedure","no","mono","no","24","no","black","no","yes","1050","legacy","65","15","C:/Users/Kristen/Documents/opPreviewExperiment-master/procedure/subject-20.csv","legacy","Kafkaesque Koffka","3.2.6","mult","0","l","NA","NA","a","l","8871","NA","NA","15450","8871","2","771","legacy","large","1024","2","48000","-16","experiment","8_4_mult_FI.jpg","20","even","legacy","257451","NA","67667","NA","NA","1979","NA","1996","58795","257451","260223","17447","55262","1981","mousetracking operator preview effect","0","0","0","no","false","no","1680"
"negative","undefined","1","undefined","undefined","white","no","legacy","legacy","legacy","0","relative","undefined","undefined","66","NA","0","0","0","0","0","0","0","82","82","0","15","0","no","04/24/19 11:23:02","A simple template for the mouse-tracking paradigm","yes","Experiment-FT.osexp","C:\Users\Kristen\Documents\opPreviewExperiment-master\procedure","no","mono","no","24","no","black","no","yes","1050","legacy","66","15","C:/Users/Kristen/Documents/opPreviewExperiment-master/procedure/subject-20.csv","legacy","Kafkaesque Koffka","3.2.6","mult","0","a","NA","NA","a","l","8871","NA","NA","15450","8871","2","1334","legacy","large","1024","2","48000","-16","experiment","6_8_mult_FI.jpg","20","even","legacy","260262","NA","67667","NA","NA","1979","NA","1996","58795","260263","262749","17447","55262","1981","mousetracking operator preview effect","0","0","0","no","false","no","1680"
"negative","undefined","1","undefined","undefined","white","no","legacy","legacy","legacy","0","relative","undefined","undefined","67","NA","0","0","0","0","0","0","0","83","83","0","15","0","no","04/24/19 11:23:02","A simple template for the mouse-tracking paradigm","yes","Experiment-FT.osexp","C:\Users\Kristen\Documents\opPreviewExperiment-master\procedure","no","mono","no","24","no","black","no","yes","1050","legacy","67","15","C:/Users/Kristen/Documents/opPreviewExperiment-master/procedure/subject-20.csv","legacy","Kafkaesque Koffka","3.2.6","mult","0","l","NA","NA","a","l","8871","NA","NA","15450","8871","2","1450","legacy","small","1024","2","48000","-16","experiment","8_2_mult_true.jpg","20","even","legacy","262773","NA","67667","NA","NA","1979","NA","1996","58795","262773","265363","17447","55262","1981","mousetracking operator preview effect","0","0","0","no","true","no","1680"
"neutral","undefined","1","undefined","undefined","white","no","legacy","legacy","legacy","0","relative","undefined","undefined","68","NA","0","0","0","0","0","0","0","84","84","0","15","0","no","04/24/19 11:23:02","A simple template for the mouse-tracking paradigm","yes","Experiment-FT.osexp","C:\Users\Kristen\Documents\opPreviewExperiment-master\procedure","no","mono","no","24","no","black","no","yes","1050","legacy","68","15","C:/Users/Kristen/Documents/opPreviewExperiment-master/procedure/subject-20.csv","legacy","Kafkaesque Koffka","3.2.6","mult","0","a","NA","NA","a","l","8871","NA","NA","15450","8871","2","749","legacy","small","1024","2","48000","-16","experiment","8_2_mult_FI.jpg","20","even","legacy","265384","NA","67667","NA","NA","1979","NA","1996","58795","265384","267108","17447","55262","1981","mousetracking operator preview effect","0","0","0","no","false","no","1680"
"negative","undefined","1","undefined","undefined","white","no","legacy","legacy","legacy","0","relative","undefined","undefined","69","NA","0","0","0","0","0","0","0","85","85","0","15","0","no","04/24/19 11:23:02","A simple template for the mouse-tracking paradigm","yes","Experiment-FT.osexp","C:\Users\Kristen\Documents\opPreviewExperiment-master\procedure","no","mono","no","24","no","black","no","yes","1050","legacy","69","15","C:/Users/Kristen/Documents/opPreviewExperiment-master/procedure/subject-20.csv","legacy","Kafkaesque Koffka","3.2.6","add","0","a","NA","NA","a","l","8871","NA","NA","15450","8871","2","1088","legacy","large","1024","2","48000","-16","experiment","6_8_add_FI.jpg","20","even","legacy","267129","NA","67667","NA","NA","1979","NA","1996","58795","267129","269378","17447","55262","1981","mousetracking operator preview effect","0","0","0","no","false","no","1680"
"neutral","undefined","0","undefined","undefined","white","no","legacy","legacy","legacy","0","relative","undefined","undefined","70","NA","0","0","0","0","0","0","0","86","86","0","15","0","no","04/24/19 11:23:02","A simple template for the mouse-tracking paradigm","yes","Experiment-FT.osexp","C:\Users\Kristen\Documents\opPreviewExperiment-master\procedure","no","mono","no","24","no","black","no","yes","1050","legacy","70","15","C:/Users/Kristen/Documents/opPreviewExperiment-master/procedure/subject-20.csv","legacy","Kafkaesque Koffka","3.2.6","add","0","l","NA","NA","a","l","8871","NA","NA","15450","8871","2","1446","legacy","small","1024","2","48000","-16","experiment","5_3_add_FI.jpg","20","even","legacy","269402","NA","67667","NA","NA","1979","NA","1996","58795","269402","272840","17447","55262","1981","mousetracking operator preview effect","0","0","0","no","false","no","1680"
"negative","undefined","1","undefined","undefined","white","no","legacy","legacy","legacy","0","relative","undefined","undefined","71","NA","0","0","0","0","0","0","0","87","87","0","15","0","no","04/24/19 11:23:02","A simple template for the mouse-tracking paradigm","yes","Experiment-FT.osexp","C:\Users\Kristen\Documents\opPreviewExperiment-master\procedure","no","mono","no","24","no","black","no","yes","1050","legacy","71","15","C:/Users/Kristen/Documents/opPreviewExperiment-master/procedure/subject-20.csv","legacy","Kafkaesque Koffka","3.2.6","add","0","a","NA","NA","a","l","8871","NA","NA","15450","8871","2","2263","legacy","small","1024","2","48000","-16","experiment","3_6_add_FI.jpg","20","even","legacy","272881","NA","67667","NA","NA","1979","NA","1996","58795","272882","276311","17447","55262","1981","mousetracking operator preview effect","0","0","0","no","false","no","1680"
"negative","undefined","1","undefined","undefined","white","no","legacy","legacy","legacy","0","relative","undefined","undefined","72","NA","0","0","0","0","0","0","0","88","88","0","15","0","no","04/24/19 11:23:02","A simple template for the mouse-tracking paradigm","yes","Experiment-FT.osexp","C:\Users\Kristen\Documents\opPreviewExperiment-master\procedure","no","mono","no","24","no","black","no","yes","1050","legacy","72","15","C:/Users/Kristen/Documents/opPreviewExperiment-master/procedure/subject-20.csv","legacy","Kafkaesque Koffka","3.2.6","add","0","a","NA","NA","a","l","8871","NA","NA","15450","8871","2","760","legacy","large","1024","2","48000","-16","experiment","6_8_add_FNI.jpg","20","even","legacy","276332","NA","67667","NA","NA","1979","NA","1996","58795","276332","278243","17447","55262","1981","mousetracking operator preview effect","0","0","0","no","false","no","1680"
"neutral","undefined","1","undefined","undefined","white","no","legacy","legacy","legacy","0","relative","undefined","undefined","73","NA","0","0","0","0","0","0","0","89","89","0","15","0","no","04/24/19 11:23:02","A simple template for the mouse-tracking paradigm","yes","Experiment-FT.osexp","C:\Users\Kristen\Documents\opPreviewExperiment-master\procedure","no","mono","no","24","no","black","no","yes","1050","legacy","73","15","C:/Users/Kristen/Documents/opPreviewExperiment-master/procedure/subject-20.csv","legacy","Kafkaesque Koffka","3.2.6","mult","0","l","NA","NA","a","l","8871","NA","NA","15450","8871","2","753","legacy","small","1024","2","48000","-16","experiment","2_7_mult_true.jpg","20","even","legacy","278270","NA","67667","NA","NA","1979","NA","1996","58795","278270","280001","17447","55262","1981","mousetracking operator preview effect","0","0","0","no","true","no","1680"
"neutral","undefined","1","undefined","undefined","white","no","legacy","legacy","legacy","0","relative","undefined","undefined","74","NA","0","0","0","0","0","0","0","90","90","0","15","0","no","04/24/19 11:23:02","A simple template for the mouse-tracking paradigm","yes","Experiment-FT.osexp","C:\Users\Kristen\Documents\opPreviewExperiment-master\procedure","no","mono","no","24","no","black","no","yes","1050","legacy","74","15","C:/Users/Kristen/Documents/opPreviewExperiment-master/procedure/subject-20.csv","legacy","Kafkaesque Koffka","3.2.6","mult","0","a","NA","NA","a","l","8871","NA","NA","15450","8871","2","706","legacy","small","1024","2","48000","-16","experiment","2_7_mult_FI.jpg","20","even","legacy","280024","NA","67667","NA","NA","1979","NA","1996","58795","280024","281720","17447","55262","1981","mousetracking operator preview effect","0","0","0","no","false","no","1680"
"negative","undefined","1","undefined","undefined","white","no","legacy","legacy","legacy","0","relative","undefined","undefined","75","NA","0","0","0","0","0","0","0","91","91","0","15","0","no","04/24/19 11:23:02","A simple template for the mouse-tracking paradigm","yes","Experiment-FT.osexp","C:\Users\Kristen\Documents\opPreviewExperiment-master\procedure","no","mono","no","24","no","black","no","yes","1050","legacy","75","15","C:/Users/Kristen/Documents/opPreviewExperiment-master/procedure/subject-20.csv","legacy","Kafkaesque Koffka","3.2.6","mult","0","l","NA","NA","a","l","8871","NA","NA","15450","8871","2","649","legacy","large","1024","2","48000","-16","experiment","6_8_mult_true.jpg","20","even","legacy","281742","NA","67667","NA","NA","1979","NA","1996","58795","281742","283532","17447","55262","1981","mousetracking operator preview effect","0","0","0","no","true","no","1680"
"negative","undefined","1","undefined","undefined","white","no","legacy","legacy","legacy","0","relative","undefined","undefined","76","NA","0","0","0","0","0","0","0","92","92","0","15","0","no","04/24/19 11:23:02","A simple template for the mouse-tracking paradigm","yes","Experiment-FT.osexp","C:\Users\Kristen\Documents\opPreviewExperiment-master\procedure","no","mono","no","24","no","black","no","yes","1050","legacy","76","15","C:/Users/Kristen/Documents/opPreviewExperiment-master/procedure/subject-20.csv","legacy","Kafkaesque Koffka","3.2.6","mult","0","l","NA","NA","a","l","8871","NA","NA","15450","8871","2","1100","legacy","large","1024","2","48000","-16","experiment","9_7_mult_true.jpg","20","even","legacy","283565","NA","67667","NA","NA","1979","NA","1996","58795","283565","285825","17447","55262","1981","mousetracking operator preview effect","0","0","0","no","true","no","1680"
"negative","undefined","1","undefined","undefined","white","no","legacy","legacy","legacy","0","relative","undefined","undefined","77","NA","0","0","0","0","0","0","0","93","93","0","15","0","no","04/24/19 11:23:02","A simple template for the mouse-tracking paradigm","yes","Experiment-FT.osexp","C:\Users\Kristen\Documents\opPreviewExperiment-master\procedure","no","mono","no","24","no","black","no","yes","1050","legacy","77","15","C:/Users/Kristen/Documents/opPreviewExperiment-master/procedure/subject-20.csv","legacy","Kafkaesque Koffka","3.2.6","mult","0","l","NA","NA","a","l","8871","NA","NA","15450","8871","2","1597","legacy","large","1024","2","48000","-16","experiment","4_9_mult_true.jpg","20","even","legacy","285847","NA","67667","NA","NA","1979","NA","1996","58795","285847","288599","17447","55262","1981","mousetracking operator preview effect","0","0","0","no","true","no","1680"
"neutral","undefined","1","undefined","undefined","white","no","legacy","legacy","legacy","0","relative","undefined","undefined","78","NA","0","0","0","0","0","0","0","94","94","0","15","0","no","04/24/19 11:23:02","A simple template for the mouse-tracking paradigm","yes","Experiment-FT.osexp","C:\Users\Kristen\Documents\opPreviewExperiment-master\procedure","no","mono","no","24","no","black","no","yes","1050","legacy","78","15","C:/Users/Kristen/Documents/opPreviewExperiment-master/procedure/subject-20.csv","legacy","Kafkaesque Koffka","3.2.6","mult","0","a","NA","NA","a","l","8871","NA","NA","15450","8871","2","1353","legacy","small","1024","2","48000","-16","experiment","2_7_mult_FNI.jpg","20","even","legacy","288634","NA","67667","NA","NA","1979","NA","1996","58795","288634","290965","17447","55262","1981","mousetracking operator preview effect","0","0","0","no","false","no","1680"
"neutral","undefined","0","undefined","undefined","white","no","legacy","legacy","legacy","0","relative","undefined","undefined","79","NA","0","0","0","0","0","0","0","95","95","0","15","0","no","04/24/19 11:23:02","A simple template for the mouse-tracking paradigm","yes","Experiment-FT.osexp","C:\Users\Kristen\Documents\opPreviewExperiment-master\procedure","no","mono","no","24","no","black","no","yes","1050","legacy","79","15","C:/Users/Kristen/Documents/opPreviewExperiment-master/procedure/subject-20.csv","legacy","Kafkaesque Koffka","3.2.6","add","0","a","NA","NA","a","l","8871","NA","NA","15450","8871","2","882","legacy","large","1024","2","48000","-16","experiment","8_4_add_true.jpg","20","even","legacy","290986","NA","67667","NA","NA","1979","NA","1996","58795","290987","293861","17447","55262","1981","mousetracking operator preview effect","0","0","0","no","true","no","1680"
"negative","undefined","1","undefined","undefined","white","no","legacy","legacy","legacy","0","relative","undefined","undefined","80","NA","0","0","0","0","0","0","0","96","96","0","15","0","no","04/24/19 11:23:02","A simple template for the mouse-tracking paradigm","yes","Experiment-FT.osexp","C:\Users\Kristen\Documents\opPreviewExperiment-master\procedure","no","mono","no","24","no","black","no","yes","1050","legacy","80","15","C:/Users/Kristen/Documents/opPreviewExperiment-master/procedure/subject-20.csv","legacy","Kafkaesque Koffka","3.2.6","add","0","a","NA","NA","a","l","8871","NA","NA","15450","8871","2","1760","legacy","large","1024","2","48000","-16","experiment","8_4_add_FI.jpg","20","even","legacy","293902","NA","67667","NA","NA","1979","NA","1996","58795","293902","296820","17447","55262","1981","mousetracking operator preview effect","0","0","0","no","false","no","1680"
"neutral","undefined","1","undefined","undefined","white","no","legacy","legacy","legacy","0","relative","undefined","undefined","81","NA","0","0","0","0","0","0","0","97","97","0","15","0","no","04/24/19 11:23:02","A simple template for the mouse-tracking paradigm","yes","Experiment-FT.osexp","C:\Users\Kristen\Documents\opPreviewExperiment-master\procedure","no","mono","no","24","no","black","no","yes","1050","legacy","81","15","C:/Users/Kristen/Documents/opPreviewExperiment-master/procedure/subject-20.csv","legacy","Kafkaesque Koffka","3.2.6","add","0","l","NA","NA","a","l","8871","NA","NA","15450","8871","2","1195","legacy","small","1024","2","48000","-16","experiment","8_2_add_true.jpg","20","even","legacy","296840","NA","67667","NA","NA","1979","NA","1996","58795","296840","299004","17447","55262","1981","mousetracking operator preview effect","0","0","0","no","true","no","1680"
"neutral","undefined","1","undefined","undefined","white","no","legacy","legacy","legacy","0","relative","undefined","undefined","82","NA","0","0","0","0","0","0","0","98","98","0","15","0","no","04/24/19 11:23:02","A simple template for the mouse-tracking paradigm","yes","Experiment-FT.osexp","C:\Users\Kristen\Documents\opPreviewExperiment-master\procedure","no","mono","no","24","no","black","no","yes","1050","legacy","82","15","C:/Users/Kristen/Documents/opPreviewExperiment-master/procedure/subject-20.csv","legacy","Kafkaesque Koffka","3.2.6","mult","0","a","NA","NA","a","l","8871","NA","NA","15450","8871","2","1241","legacy","large","1024","2","48000","-16","experiment","6_8_mult_FI.jpg","20","even","legacy","299025","NA","67667","NA","NA","1979","NA","1996","58795","299025","301243","17447","55262","1981","mousetracking operator preview effect","0","0","0","no","false","no","1680"
"negative","undefined","1","undefined","undefined","white","no","legacy","legacy","legacy","0","relative","undefined","undefined","83","NA","0","0","0","0","0","0","0","99","99","0","15","0","no","04/24/19 11:23:02","A simple template for the mouse-tracking paradigm","yes","Experiment-FT.osexp","C:\Users\Kristen\Documents\opPreviewExperiment-master\procedure","no","mono","no","24","no","black","no","yes","1050","legacy","83","15","C:/Users/Kristen/Documents/opPreviewExperiment-master/procedure/subject-20.csv","legacy","Kafkaesque Koffka","3.2.6","add","0","a","NA","NA","a","l","8871","NA","NA","15450","8871","2","1656","legacy","large","1024","2","48000","-16","experiment","4_9_add_FNI.jpg","20","even","legacy","301263","NA","67667","NA","NA","1979","NA","1996","58795","301263","304063","17447","55262","1981","mousetracking operator preview effect","0","0","0","no","false","no","1680"
"negative","undefined","1","undefined","undefined","white","no","legacy","legacy","legacy","0","relative","undefined","undefined","84","NA","0","0","0","0","0","0","0","100","100","0","15","0","no","04/24/19 11:23:02","A simple template for the mouse-tracking paradigm","yes","Experiment-FT.osexp","C:\Users\Kristen\Documents\opPreviewExperiment-master\procedure","no","mono","no","24","no","black","no","yes","1050","legacy","84","15","C:/Users/Kristen/Documents/opPreviewExperiment-master/procedure/subject-20.csv","legacy","Kafkaesque Koffka","3.2.6","add","0","l","NA","NA","a","l","8871","NA","NA","15450","8871","2","1556","legacy","small","1024","2","48000","-16","experiment","8_2_add_true.jpg","20","even","legacy","304084","NA","67667","NA","NA","1979","NA","1996","58795","304084","306775","17447","55262","1981","mousetracking operator preview effect","0","0","0","no","true","no","1680"
"neutral","undefined","1","undefined","undefined","white","no","legacy","legacy","legacy","0","relative","undefined","undefined","85","NA","0","0","0","0","0","0","0","101","101","0","15","0","no","04/24/19 11:23:02","A simple template for the mouse-tracking paradigm","yes","Experiment-FT.osexp","C:\Users\Kristen\Documents\opPreviewExperiment-master\procedure","no","mono","no","24","no","black","no","yes","1050","legacy","85","15","C:/Users/Kristen/Documents/opPreviewExperiment-master/procedure/subject-20.csv","legacy","Kafkaesque Koffka","3.2.6","mult","0","a","NA","NA","a","l","8871","NA","NA","15450","8871","2","2121","legacy","large","1024","2","48000","-16","experiment","4_9_mult_FNI.jpg","20","even","legacy","306790","NA","67667","NA","NA","1979","NA","1996","58795","306790","309892","17447","55262","1981","mousetracking operator preview effect","0","0","0","no","false","no","1680"
"negative","undefined","1","undefined","undefined","white","no","legacy","legacy","legacy","0","relative","undefined","undefined","86","NA","0","0","0","0","0","0","0","102","102","0","15","0","no","04/24/19 11:23:02","A simple template for the mouse-tracking paradigm","yes","Experiment-FT.osexp","C:\Users\Kristen\Documents\opPreviewExperiment-master\procedure","no","mono","no","24","no","black","no","yes","1050","legacy","86","15","C:/Users/Kristen/Documents/opPreviewExperiment-master/procedure/subject-20.csv","legacy","Kafkaesque Koffka","3.2.6","mult","0","a","NA","NA","a","l","8871","NA","NA","15450","8871","2","3676","legacy","small","1024","2","48000","-16","experiment","3_6_mult_FI.jpg","20","even","legacy","309914","NA","67667","NA","NA","1979","NA","1996","58795","309914","314717","17447","55262","1981","mousetracking operator preview effect","0","0","0","no","false","no","1680"
"neutral","undefined","1","undefined","undefined","white","no","legacy","legacy","legacy","0","relative","undefined","undefined","87","NA","0","0","0","0","0","0","0","103","103","0","15","0","no","04/24/19 11:23:02","A simple template for the mouse-tracking paradigm","yes","Experiment-FT.osexp","C:\Users\Kristen\Documents\opPreviewExperiment-master\procedure","no","mono","no","24","no","black","no","yes","1050","legacy","87","15","C:/Users/Kristen/Documents/opPreviewExperiment-master/procedure/subject-20.csv","legacy","Kafkaesque Koffka","3.2.6","add","0","a","NA","NA","a","l","8871","NA","NA","15450","8871","2","1003","legacy","small","1024","2","48000","-16","experiment","5_3_add_FNI.jpg","20","even","legacy","314739","NA","67667","NA","NA","1979","NA","1996","58795","314739","316721","17447","55262","1981","mousetracking operator preview effect","0","0","0","no","false","no","1680"
"negative","undefined","1","undefined","undefined","white","no","legacy","legacy","legacy","0","relative","undefined","undefined","88","NA","0","0","0","0","0","0","0","104","104","0","15","0","no","04/24/19 11:23:02","A simple template for the mouse-tracking paradigm","yes","Experiment-FT.osexp","C:\Users\Kristen\Documents\opPreviewExperiment-master\procedure","no","mono","no","24","no","black","no","yes","1050","legacy","88","15","C:/Users/Kristen/Documents/opPreviewExperiment-master/procedure/subject-20.csv","legacy","Kafkaesque Koffka","3.2.6","mult","0","l","NA","NA","a","l","8871","NA","NA","15450","8871","2","838","legacy","small","1024","2","48000","-16","experiment","3_6_mult_true.jpg","20","even","legacy","316745","NA","67667","NA","NA","1979","NA","1996","58795","316745","318736","17447","55262","1981","mousetracking operator preview effect","0","0","0","no","true","no","1680"
"negative","undefined","1","undefined","undefined","white","no","legacy","legacy","legacy","0","relative","undefined","undefined","89","NA","0","0","0","0","0","0","0","105","105","0","15","0","no","04/24/19 11:23:02","A simple template for the mouse-tracking paradigm","yes","Experiment-FT.osexp","C:\Users\Kristen\Documents\opPreviewExperiment-master\procedure","no","mono","no","24","no","black","no","yes","1050","legacy","89","15","C:/Users/Kristen/Documents/opPreviewExperiment-master/procedure/subject-20.csv","legacy","Kafkaesque Koffka","3.2.6","add","0","l","NA","NA","a","l","8871","NA","NA","15450","8871","2","1737","legacy","large","1024","2","48000","-16","experiment","4_9_add_true.jpg","20","even","legacy","318764","NA","67667","NA","NA","1979","NA","1996","58795","318764","321652","17447","55262","1981","mousetracking operator preview effect","0","0","0","no","true","no","1680"
"negative","undefined","1","undefined","undefined","white","no","legacy","legacy","legacy","0","relative","undefined","undefined","90","NA","0","0","0","0","0","0","0","106","106","0","15","0","no","04/24/19 11:23:02","A simple template for the mouse-tracking paradigm","yes","Experiment-FT.osexp","C:\Users\Kristen\Documents\opPreviewExperiment-master\procedure","no","mono","no","24","no","black","no","yes","1050","legacy","90","15","C:/Users/Kristen/Documents/opPreviewExperiment-master/procedure/subject-20.csv","legacy","Kafkaesque Koffka","3.2.6","mult","0","a","NA","NA","a","l","8871","NA","NA","15450","8871","2","926","legacy","small","1024","2","48000","-16","experiment","5_3_mult_FNI.jpg","20","even","legacy","321682","NA","67667","NA","NA","1979","NA","1996","58795","321682","323762","17447","55262","1981","mousetracking operator preview effect","0","0","0","no","false","no","1680"
"neutral","undefined","1","undefined","undefined","white","no","legacy","legacy","legacy","0","relative","undefined","undefined","91","NA","0","0","0","0","0","0","0","107","107","0","15","0","no","04/24/19 11:23:02","A simple template for the mouse-tracking paradigm","yes","Experiment-FT.osexp","C:\Users\Kristen\Documents\opPreviewExperiment-master\procedure","no","mono","no","24","no","black","no","yes","1050","legacy","91","15","C:/Users/Kristen/Documents/opPreviewExperiment-master/procedure/subject-20.csv","legacy","Kafkaesque Koffka","3.2.6","add","0","l","NA","NA","a","l","8871","NA","NA","15450","8871","2","2007","legacy","small","1024","2","48000","-16","experiment","5_3_add_true.jpg","20","even","legacy","323789","NA","67667","NA","NA","1979","NA","1996","58795","323790","326773","17447","55262","1981","mousetracking operator preview effect","0","0","0","no","true","no","1680"
"negative","undefined","1","undefined","undefined","white","no","legacy","legacy","legacy","0","relative","undefined","undefined","92","NA","0","0","0","0","0","0","0","108","108","0","15","0","no","04/24/19 11:23:02","A simple template for the mouse-tracking paradigm","yes","Experiment-FT.osexp","C:\Users\Kristen\Documents\opPreviewExperiment-master\procedure","no","mono","no","24","no","black","no","yes","1050","legacy","92","15","C:/Users/Kristen/Documents/opPreviewExperiment-master/procedure/subject-20.csv","legacy","Kafkaesque Koffka","3.2.6","add","0","l","NA","NA","a","l","8871","NA","NA","15450","8871","2","2308","legacy","small","1024","2","48000","-16","experiment","8_2_add_true.jpg","20","even","legacy","326793","NA","67667","NA","NA","1979","NA","1996","58795","326793","330251","17447","55262","1981","mousetracking operator preview effect","0","0","0","no","true","no","1680"
