"SOAcondition","acc","accuracy","average_response_time","avg_rt","background","bidi","canvas_backend","clock_backend","color_backend","compensation","coordinates","correct","correct_instruction1","count_block1_sequence","count_block2_sequence","count_block_1","count_block_2","count_breakScreen","count_experiment","count_finish","count_instruction1","count_instruction2","count_keyboard_script","count_logger","count_practiceBlock","count_practice_sequence","count_setup_script","custom_cursor","datetime","description","disable_garbage_collection","experiment_file","experiment_path","font_bold","font_family","font_italic","font_size","font_underline","foreground","form_clicks","fullscreen","height","keyboard_backend","live_row","live_row_practiceBlock","logfile","mouse_backend","opensesame_codename","opensesame_version","operation","repeat_cycle","response","response_breakScreen","response_finish","response_instruction1","response_instruction2","response_time","response_time_breakScreen","response_time_finish","response_time_instruction1","response_time_instruction2","round_decimals","rt","sampler_backend","size","sound_buf_size","sound_channels","sound_freq","sound_sample_size","start","stimulus","subject_nr","subject_parity","synth_backend","time_block1_sequence","time_block2_sequence","time_block_1","time_block_2","time_breakScreen","time_experiment","time_finish","time_instruction1","time_instruction2","time_keyboard_script","time_logger","time_practiceBlock","time_practice_sequence","time_setup_script","title","total_correct","total_response_time","total_responses","transparent_variables","truth","uniform_coordinates","width"
"negative","undefined","1","undefined","undefined","white","no","legacy","legacy","legacy","0","relative","undefined","undefined","NA","NA","0","0","0","0","0","0","0","0","0","0","0","0","no","03/17/19 22:13:12","A simple template for the mouse-tracking paradigm","yes","Experiment-TF.osexp","C:\Users\Kristen\Documents\opPreviewExperiment-master\procedure","no","mono","no","24","no","black","no","yes","1050","legacy","0","0","C:/Users/Kristen/Documents/opPreviewExperiment-master/procedure/subject-8.csv","legacy","Kafkaesque Koffka","3.2.6","mult","0","l","NA","NA","a","NA","13008","NA","NA","13008","NA","2","2310","legacy","NA","1024","2","48000","-16","experiment","0_3_mult_F.jpg","8","even","legacy","NA","NA","NA","NA","NA","2836","NA","2854","NA","15866","19431","15863","15865","2838","mousetracking operator preview effect","0","0","0","no","false","no","1680"
"neutral","undefined","1","undefined","undefined","white","no","legacy","legacy","legacy","0","relative","undefined","undefined","NA","NA","0","0","0","0","0","0","0","1","1","0","1","0","no","03/17/19 22:13:12","A simple template for the mouse-tracking paradigm","yes","Experiment-TF.osexp","C:\Users\Kristen\Documents\opPreviewExperiment-master\procedure","no","mono","no","24","no","black","no","yes","1050","legacy","1","1","C:/Users/Kristen/Documents/opPreviewExperiment-master/procedure/subject-8.csv","legacy","Kafkaesque Koffka","3.2.6","mult","0","l","NA","NA","a","NA","13008","NA","NA","13008","NA","2","2230","legacy","NA","1024","2","48000","-16","experiment","1_4_mult_F.jpg","8","even","legacy","NA","NA","NA","NA","NA","2836","NA","2854","NA","19465","22687","15863","19465","2838","mousetracking operator preview effect","0","0","0","no","false","no","1680"
"negative","undefined","1","undefined","undefined","white","no","legacy","legacy","legacy","0","relative","undefined","undefined","NA","NA","0","0","0","0","0","0","0","2","2","0","2","0","no","03/17/19 22:13:12","A simple template for the mouse-tracking paradigm","yes","Experiment-TF.osexp","C:\Users\Kristen\Documents\opPreviewExperiment-master\procedure","no","mono","no","24","no","black","no","yes","1050","legacy","2","2","C:/Users/Kristen/Documents/opPreviewExperiment-master/procedure/subject-8.csv","legacy","Kafkaesque Koffka","3.2.6","add","0","l","NA","NA","a","NA","13008","NA","NA","13008","NA","2","2367","legacy","NA","1024","2","48000","-16","experiment","0_3_add_F.jpg","8","even","legacy","NA","NA","NA","NA","NA","2836","NA","2854","NA","22714","26241","15863","22714","2838","mousetracking operator preview effect","0","0","0","no","false","no","1680"
"neutral","undefined","1","undefined","undefined","white","no","legacy","legacy","legacy","0","relative","undefined","undefined","NA","NA","0","0","0","0","0","0","0","3","3","0","3","0","no","03/17/19 22:13:12","A simple template for the mouse-tracking paradigm","yes","Experiment-TF.osexp","C:\Users\Kristen\Documents\opPreviewExperiment-master\procedure","no","mono","no","24","no","black","no","yes","1050","legacy","3","3","C:/Users/Kristen/Documents/opPreviewExperiment-master/procedure/subject-8.csv","legacy","Kafkaesque Koffka","3.2.6","add","0","l","NA","NA","a","NA","13008","NA","NA","13008","NA","2","4341","legacy","NA","1024","2","48000","-16","experiment","1_4_add_F.jpg","8","even","legacy","NA","NA","NA","NA","NA","2836","NA","2854","NA","26268","31605","15863","26268","2838","mousetracking operator preview effect","0","0","0","no","false","no","1680"
"negative","undefined","1","undefined","undefined","white","no","legacy","legacy","legacy","0","relative","undefined","undefined","NA","NA","0","0","0","0","0","0","0","4","4","0","4","0","no","03/17/19 22:13:12","A simple template for the mouse-tracking paradigm","yes","Experiment-TF.osexp","C:\Users\Kristen\Documents\opPreviewExperiment-master\procedure","no","mono","no","24","no","black","no","yes","1050","legacy","4","4","C:/Users/Kristen/Documents/opPreviewExperiment-master/procedure/subject-8.csv","legacy","Kafkaesque Koffka","3.2.6","add","0","a","NA","NA","a","NA","13008","NA","NA","13008","NA","2","1422","legacy","NA","1024","2","48000","-16","experiment","0_3_add_T.jpg","8","even","legacy","NA","NA","NA","NA","NA","2836","NA","2854","NA","31618","34161","15863","31618","2838","mousetracking operator preview effect","0","0","0","no","true","no","1680"
"negative","undefined","1","undefined","undefined","white","no","legacy","legacy","legacy","0","relative","undefined","undefined","NA","NA","0","0","0","0","0","0","0","5","5","0","5","0","no","03/17/19 22:13:12","A simple template for the mouse-tracking paradigm","yes","Experiment-TF.osexp","C:\Users\Kristen\Documents\opPreviewExperiment-master\procedure","no","mono","no","24","no","black","no","yes","1050","legacy","5","5","C:/Users/Kristen/Documents/opPreviewExperiment-master/procedure/subject-8.csv","legacy","Kafkaesque Koffka","3.2.6","mult","0","l","NA","NA","a","NA","13008","NA","NA","13008","NA","2","1138","legacy","NA","1024","2","48000","-16","experiment","1_4_mult_F.jpg","8","even","legacy","NA","NA","NA","NA","NA","2836","NA","2854","NA","34176","36462","15863","34176","2838","mousetracking operator preview effect","0","0","0","no","false","no","1680"
"negative","undefined","1","undefined","undefined","white","no","legacy","legacy","legacy","0","relative","undefined","undefined","NA","NA","0","0","0","0","0","0","0","6","6","0","6","0","no","03/17/19 22:13:12","A simple template for the mouse-tracking paradigm","yes","Experiment-TF.osexp","C:\Users\Kristen\Documents\opPreviewExperiment-master\procedure","no","mono","no","24","no","black","no","yes","1050","legacy","6","6","C:/Users/Kristen/Documents/opPreviewExperiment-master/procedure/subject-8.csv","legacy","Kafkaesque Koffka","3.2.6","add","0","a","NA","NA","a","NA","13008","NA","NA","13008","NA","2","1553","legacy","NA","1024","2","48000","-16","experiment","1_4_add_T.jpg","8","even","legacy","NA","NA","NA","NA","NA","2836","NA","2854","NA","36483","39197","15863","36483","2838","mousetracking operator preview effect","0","0","0","no","true","no","1680"
"neutral","undefined","1","undefined","undefined","white","no","legacy","legacy","legacy","0","relative","undefined","undefined","NA","NA","0","0","0","0","0","0","0","7","7","0","7","0","no","03/17/19 22:13:12","A simple template for the mouse-tracking paradigm","yes","Experiment-TF.osexp","C:\Users\Kristen\Documents\opPreviewExperiment-master\procedure","no","mono","no","24","no","black","no","yes","1050","legacy","7","7","C:/Users/Kristen/Documents/opPreviewExperiment-master/procedure/subject-8.csv","legacy","Kafkaesque Koffka","3.2.6","mult","0","a","NA","NA","a","NA","13008","NA","NA","13008","NA","2","1312","legacy","NA","1024","2","48000","-16","experiment","0_3_mult_T.jpg","8","even","legacy","NA","NA","NA","NA","NA","2836","NA","2854","NA","39225","41532","15863","39225","2838","mousetracking operator preview effect","0","0","0","no","true","no","1680"
"neutral","undefined","1","undefined","undefined","white","no","legacy","legacy","legacy","0","relative","undefined","undefined","NA","NA","0","0","0","0","0","0","0","8","8","0","8","0","no","03/17/19 22:13:12","A simple template for the mouse-tracking paradigm","yes","Experiment-TF.osexp","C:\Users\Kristen\Documents\opPreviewExperiment-master\procedure","no","mono","no","24","no","black","no","yes","1050","legacy","8","8","C:/Users/Kristen/Documents/opPreviewExperiment-master/procedure/subject-8.csv","legacy","Kafkaesque Koffka","3.2.6","mult","0","a","NA","NA","a","NA","13008","NA","NA","13008","NA","2","820","legacy","NA","1024","2","48000","-16","experiment","1_4_mult_T.jpg","8","even","legacy","NA","NA","NA","NA","NA","2836","NA","2854","NA","41553","43365","15863","41553","2838","mousetracking operator preview effect","0","0","0","no","true","no","1680"
"neutral","undefined","1","undefined","undefined","white","no","legacy","legacy","legacy","0","relative","undefined","undefined","NA","NA","0","0","0","0","0","0","0","9","9","0","9","0","no","03/17/19 22:13:12","A simple template for the mouse-tracking paradigm","yes","Experiment-TF.osexp","C:\Users\Kristen\Documents\opPreviewExperiment-master\procedure","no","mono","no","24","no","black","no","yes","1050","legacy","9","9","C:/Users/Kristen/Documents/opPreviewExperiment-master/procedure/subject-8.csv","legacy","Kafkaesque Koffka","3.2.6","mult","0","l","NA","NA","a","NA","13008","NA","NA","13008","NA","2","1010","legacy","NA","1024","2","48000","-16","experiment","0_3_mult_F.jpg","8","even","legacy","NA","NA","NA","NA","NA","2836","NA","2854","NA","43403","45393","15863","43403","2838","mousetracking operator preview effect","0","0","0","no","false","no","1680"
"negative","undefined","1","undefined","undefined","white","no","legacy","legacy","legacy","0","relative","undefined","undefined","NA","NA","0","0","0","0","0","0","0","10","10","0","10","0","no","03/17/19 22:13:12","A simple template for the mouse-tracking paradigm","yes","Experiment-TF.osexp","C:\Users\Kristen\Documents\opPreviewExperiment-master\procedure","no","mono","no","24","no","black","no","yes","1050","legacy","10","10","C:/Users/Kristen/Documents/opPreviewExperiment-master/procedure/subject-8.csv","legacy","Kafkaesque Koffka","3.2.6","mult","0","a","NA","NA","a","NA","13008","NA","NA","13008","NA","2","963","legacy","NA","1024","2","48000","-16","experiment","1_4_mult_T.jpg","8","even","legacy","NA","NA","NA","NA","NA","2836","NA","2854","NA","45417","47516","15863","45417","2838","mousetracking operator preview effect","0","0","0","no","true","no","1680"
"neutral","undefined","1","undefined","undefined","white","no","legacy","legacy","legacy","0","relative","undefined","undefined","NA","NA","0","0","0","0","0","0","0","11","11","0","11","0","no","03/17/19 22:13:12","A simple template for the mouse-tracking paradigm","yes","Experiment-TF.osexp","C:\Users\Kristen\Documents\opPreviewExperiment-master\procedure","no","mono","no","24","no","black","no","yes","1050","legacy","11","11","C:/Users/Kristen/Documents/opPreviewExperiment-master/procedure/subject-8.csv","legacy","Kafkaesque Koffka","3.2.6","add","0","a","NA","NA","a","NA","13008","NA","NA","13008","NA","2","1965","legacy","NA","1024","2","48000","-16","experiment","0_3_add_T.jpg","8","even","legacy","NA","NA","NA","NA","NA","2836","NA","2854","NA","47539","50481","15863","47539","2838","mousetracking operator preview effect","0","0","0","no","true","no","1680"
"neutral","undefined","1","undefined","undefined","white","no","legacy","legacy","legacy","0","relative","undefined","undefined","NA","NA","0","0","0","0","0","0","0","12","12","0","12","0","no","03/17/19 22:13:12","A simple template for the mouse-tracking paradigm","yes","Experiment-TF.osexp","C:\Users\Kristen\Documents\opPreviewExperiment-master\procedure","no","mono","no","24","no","black","no","yes","1050","legacy","12","12","C:/Users/Kristen/Documents/opPreviewExperiment-master/procedure/subject-8.csv","legacy","Kafkaesque Koffka","3.2.6","add","0","a","NA","NA","a","NA","13008","NA","NA","13008","NA","2","747","legacy","NA","1024","2","48000","-16","experiment","1_4_add_T.jpg","8","even","legacy","NA","NA","NA","NA","NA","2836","NA","2854","NA","50495","52191","15863","50495","2838","mousetracking operator preview effect","0","0","0","no","true","no","1680"
"neutral","undefined","1","undefined","undefined","white","no","legacy","legacy","legacy","0","relative","undefined","undefined","NA","NA","0","0","0","0","0","0","0","13","13","0","13","0","no","03/17/19 22:13:12","A simple template for the mouse-tracking paradigm","yes","Experiment-TF.osexp","C:\Users\Kristen\Documents\opPreviewExperiment-master\procedure","no","mono","no","24","no","black","no","yes","1050","legacy","13","13","C:/Users/Kristen/Documents/opPreviewExperiment-master/procedure/subject-8.csv","legacy","Kafkaesque Koffka","3.2.6","add","0","l","NA","NA","a","NA","13008","NA","NA","13008","NA","2","1155","legacy","NA","1024","2","48000","-16","experiment","0_3_add_F.jpg","8","even","legacy","NA","NA","NA","NA","NA","2836","NA","2854","NA","52219","54322","15863","52219","2838","mousetracking operator preview effect","0","0","0","no","false","no","1680"
"negative","undefined","1","undefined","undefined","white","no","legacy","legacy","legacy","0","relative","undefined","undefined","NA","NA","0","0","0","0","0","0","0","14","14","0","14","0","no","03/17/19 22:13:12","A simple template for the mouse-tracking paradigm","yes","Experiment-TF.osexp","C:\Users\Kristen\Documents\opPreviewExperiment-master\procedure","no","mono","no","24","no","black","no","yes","1050","legacy","14","14","C:/Users/Kristen/Documents/opPreviewExperiment-master/procedure/subject-8.csv","legacy","Kafkaesque Koffka","3.2.6","mult","0","a","NA","NA","a","NA","13008","NA","NA","13008","NA","2","897","legacy","NA","1024","2","48000","-16","experiment","0_3_mult_T.jpg","8","even","legacy","NA","NA","NA","NA","NA","2836","NA","2854","NA","54351","56370","15863","54351","2838","mousetracking operator preview effect","0","0","0","no","true","no","1680"
"negative","undefined","1","undefined","undefined","white","no","legacy","legacy","legacy","0","relative","undefined","undefined","NA","NA","0","0","0","0","0","0","0","15","15","0","15","0","no","03/17/19 22:13:12","A simple template for the mouse-tracking paradigm","yes","Experiment-TF.osexp","C:\Users\Kristen\Documents\opPreviewExperiment-master\procedure","no","mono","no","24","no","black","no","yes","1050","legacy","15","15","C:/Users/Kristen/Documents/opPreviewExperiment-master/procedure/subject-8.csv","legacy","Kafkaesque Koffka","3.2.6","add","0","l","NA","NA","a","NA","13008","NA","NA","13008","NA","2","833","legacy","NA","1024","2","48000","-16","experiment","1_4_add_F.jpg","8","even","legacy","NA","NA","NA","NA","NA","2836","NA","2854","NA","56394","58347","15863","56394","2838","mousetracking operator preview effect","0","0","0","no","false","no","1680"
"neutral","undefined","1","undefined","undefined","white","no","legacy","legacy","legacy","0","relative","undefined","undefined","0","NA","0","0","0","0","0","0","0","16","16","0","15","0","no","03/17/19 22:13:12","A simple template for the mouse-tracking paradigm","yes","Experiment-TF.osexp","C:\Users\Kristen\Documents\opPreviewExperiment-master\procedure","no","mono","no","24","no","black","no","yes","1050","legacy","0","15","C:/Users/Kristen/Documents/opPreviewExperiment-master/procedure/subject-8.csv","legacy","Kafkaesque Koffka","3.2.6","mult","0","l","NA","NA","a","a","1700","NA","NA","13008","1700","2","3042","legacy","small","1024","2","48000","-16","experiment","5_3_mult_FI.jpg","8","even","legacy","60080","NA","60073","NA","NA","2836","NA","2854","58373","60080","64080","15863","56394","2838","mousetracking operator preview effect","0","0","0","no","false","no","1680"
"negative","undefined","1","undefined","undefined","white","no","legacy","legacy","legacy","0","relative","undefined","undefined","1","NA","0","0","0","0","0","0","0","17","17","0","15","0","no","03/17/19 22:13:12","A simple template for the mouse-tracking paradigm","yes","Experiment-TF.osexp","C:\Users\Kristen\Documents\opPreviewExperiment-master\procedure","no","mono","no","24","no","black","no","yes","1050","legacy","1","15","C:/Users/Kristen/Documents/opPreviewExperiment-master/procedure/subject-8.csv","legacy","Kafkaesque Koffka","3.2.6","mult","0","a","NA","NA","a","a","1700","NA","NA","13008","1700","2","2346","legacy","large","1024","2","48000","-16","experiment","9_7_mult_true.jpg","8","even","legacy","64105","NA","60073","NA","NA","2836","NA","2854","58373","64105","67578","15863","56394","2838","mousetracking operator preview effect","0","0","0","no","true","no","1680"
"neutral","undefined","1","undefined","undefined","white","no","legacy","legacy","legacy","0","relative","undefined","undefined","2","NA","0","0","0","0","0","0","0","18","18","0","15","0","no","03/17/19 22:13:12","A simple template for the mouse-tracking paradigm","yes","Experiment-TF.osexp","C:\Users\Kristen\Documents\opPreviewExperiment-master\procedure","no","mono","no","24","no","black","no","yes","1050","legacy","2","15","C:/Users/Kristen/Documents/opPreviewExperiment-master/procedure/subject-8.csv","legacy","Kafkaesque Koffka","3.2.6","add","0","l","NA","NA","a","a","1700","NA","NA","13008","1700","2","3086","legacy","large","1024","2","48000","-16","experiment","4_9_add_FI.jpg","8","even","legacy","67600","NA","60073","NA","NA","2836","NA","2854","58373","67600","71646","15863","56394","2838","mousetracking operator preview effect","0","0","0","no","false","no","1680"
"negative","undefined","1","undefined","undefined","white","no","legacy","legacy","legacy","0","relative","undefined","undefined","3","NA","0","0","0","0","0","0","0","19","19","0","15","0","no","03/17/19 22:13:12","A simple template for the mouse-tracking paradigm","yes","Experiment-TF.osexp","C:\Users\Kristen\Documents\opPreviewExperiment-master\procedure","no","mono","no","24","no","black","no","yes","1050","legacy","3","15","C:/Users/Kristen/Documents/opPreviewExperiment-master/procedure/subject-8.csv","legacy","Kafkaesque Koffka","3.2.6","add","0","a","NA","NA","a","a","1700","NA","NA","13008","1700","2","941","legacy","small","1024","2","48000","-16","experiment","8_2_add_true.jpg","8","even","legacy","71670","NA","60073","NA","NA","2836","NA","2854","58373","71670","73753","15863","56394","2838","mousetracking operator preview effect","0","0","0","no","true","no","1680"
"negative","undefined","1","undefined","undefined","white","no","legacy","legacy","legacy","0","relative","undefined","undefined","4","NA","0","0","0","0","0","0","0","20","20","0","15","0","no","03/17/19 22:13:12","A simple template for the mouse-tracking paradigm","yes","Experiment-TF.osexp","C:\Users\Kristen\Documents\opPreviewExperiment-master\procedure","no","mono","no","24","no","black","no","yes","1050","legacy","4","15","C:/Users/Kristen/Documents/opPreviewExperiment-master/procedure/subject-8.csv","legacy","Kafkaesque Koffka","3.2.6","mult","0","l","NA","NA","a","a","1700","NA","NA","13008","1700","2","2232","legacy","small","1024","2","48000","-16","experiment","3_6_mult_FNI.jpg","8","even","legacy","73776","NA","60073","NA","NA","2836","NA","2854","58373","73776","77130","15863","56394","2838","mousetracking operator preview effect","0","0","0","no","false","no","1680"
"negative","undefined","1","undefined","undefined","white","no","legacy","legacy","legacy","0","relative","undefined","undefined","5","NA","0","0","0","0","0","0","0","21","21","0","15","0","no","03/17/19 22:13:12","A simple template for the mouse-tracking paradigm","yes","Experiment-TF.osexp","C:\Users\Kristen\Documents\opPreviewExperiment-master\procedure","no","mono","no","24","no","black","no","yes","1050","legacy","5","15","C:/Users/Kristen/Documents/opPreviewExperiment-master/procedure/subject-8.csv","legacy","Kafkaesque Koffka","3.2.6","add","0","l","NA","NA","a","a","1700","NA","NA","13008","1700","2","990","legacy","small","1024","2","48000","-16","experiment","3_6_add_FI.jpg","8","even","legacy","77148","NA","60073","NA","NA","2836","NA","2854","58373","77148","79250","15863","56394","2838","mousetracking operator preview effect","0","0","0","no","false","no","1680"
"neutral","undefined","1","undefined","undefined","white","no","legacy","legacy","legacy","0","relative","undefined","undefined","6","NA","0","0","0","0","0","0","0","22","22","0","15","0","no","03/17/19 22:13:12","A simple template for the mouse-tracking paradigm","yes","Experiment-TF.osexp","C:\Users\Kristen\Documents\opPreviewExperiment-master\procedure","no","mono","no","24","no","black","no","yes","1050","legacy","6","15","C:/Users/Kristen/Documents/opPreviewExperiment-master/procedure/subject-8.csv","legacy","Kafkaesque Koffka","3.2.6","add","0","a","NA","NA","a","a","1700","NA","NA","13008","1700","2","2576","legacy","large","1024","2","48000","-16","experiment","9_7_add_true.jpg","8","even","legacy","79273","NA","60073","NA","NA","2836","NA","2854","58373","79273","82809","15863","56394","2838","mousetracking operator preview effect","0","0","0","no","true","no","1680"
"neutral","undefined","0","undefined","undefined","white","no","legacy","legacy","legacy","0","relative","undefined","undefined","7","NA","0","0","0","0","0","0","0","23","23","0","15","0","no","03/17/19 22:13:12","A simple template for the mouse-tracking paradigm","yes","Experiment-TF.osexp","C:\Users\Kristen\Documents\opPreviewExperiment-master\procedure","no","mono","no","24","no","black","no","yes","1050","legacy","7","15","C:/Users/Kristen/Documents/opPreviewExperiment-master/procedure/subject-8.csv","legacy","Kafkaesque Koffka","3.2.6","mult","0","a","NA","NA","a","a","1700","NA","NA","13008","1700","2","1583","legacy","small","1024","2","48000","-16","experiment","3_6_mult_FI.jpg","8","even","legacy","82839","NA","60073","NA","NA","2836","NA","2854","58373","82839","86434","15863","56394","2838","mousetracking operator preview effect","0","0","0","no","false","no","1680"
"negative","undefined","1","undefined","undefined","white","no","legacy","legacy","legacy","0","relative","undefined","undefined","8","NA","0","0","0","0","0","0","0","24","24","0","15","0","no","03/17/19 22:13:12","A simple template for the mouse-tracking paradigm","yes","Experiment-TF.osexp","C:\Users\Kristen\Documents\opPreviewExperiment-master\procedure","no","mono","no","24","no","black","no","yes","1050","legacy","8","15","C:/Users/Kristen/Documents/opPreviewExperiment-master/procedure/subject-8.csv","legacy","Kafkaesque Koffka","3.2.6","add","0","a","NA","NA","a","a","1700","NA","NA","13008","1700","2","1792","legacy","large","1024","2","48000","-16","experiment","9_7_add_true.jpg","8","even","legacy","86473","NA","60073","NA","NA","2836","NA","2854","58373","86474","89417","15863","56394","2838","mousetracking operator preview effect","0","0","0","no","true","no","1680"
"negative","undefined","1","undefined","undefined","white","no","legacy","legacy","legacy","0","relative","undefined","undefined","9","NA","0","0","0","0","0","0","0","25","25","0","15","0","no","03/17/19 22:13:12","A simple template for the mouse-tracking paradigm","yes","Experiment-TF.osexp","C:\Users\Kristen\Documents\opPreviewExperiment-master\procedure","no","mono","no","24","no","black","no","yes","1050","legacy","9","15","C:/Users/Kristen/Documents/opPreviewExperiment-master/procedure/subject-8.csv","legacy","Kafkaesque Koffka","3.2.6","add","0","a","NA","NA","a","a","1700","NA","NA","13008","1700","2","1285","legacy","small","1024","2","48000","-16","experiment","2_7_add_true.jpg","8","even","legacy","89447","NA","60073","NA","NA","2836","NA","2854","58373","89447","91904","15863","56394","2838","mousetracking operator preview effect","0","0","0","no","true","no","1680"
"neutral","undefined","1","undefined","undefined","white","no","legacy","legacy","legacy","0","relative","undefined","undefined","10","NA","0","0","0","0","0","0","0","26","26","0","15","0","no","03/17/19 22:13:12","A simple template for the mouse-tracking paradigm","yes","Experiment-TF.osexp","C:\Users\Kristen\Documents\opPreviewExperiment-master\procedure","no","mono","no","24","no","black","no","yes","1050","legacy","10","15","C:/Users/Kristen/Documents/opPreviewExperiment-master/procedure/subject-8.csv","legacy","Kafkaesque Koffka","3.2.6","add","0","l","NA","NA","a","a","1700","NA","NA","13008","1700","2","1759","legacy","large","1024","2","48000","-16","experiment","9_7_add_FI.jpg","8","even","legacy","91925","NA","60073","NA","NA","2836","NA","2854","58373","91925","94820","15863","56394","2838","mousetracking operator preview effect","0","0","0","no","false","no","1680"
"neutral","undefined","1","undefined","undefined","white","no","legacy","legacy","legacy","0","relative","undefined","undefined","11","NA","0","0","0","0","0","0","0","27","27","0","15","0","no","03/17/19 22:13:12","A simple template for the mouse-tracking paradigm","yes","Experiment-TF.osexp","C:\Users\Kristen\Documents\opPreviewExperiment-master\procedure","no","mono","no","24","no","black","no","yes","1050","legacy","11","15","C:/Users/Kristen/Documents/opPreviewExperiment-master/procedure/subject-8.csv","legacy","Kafkaesque Koffka","3.2.6","mult","0","a","NA","NA","a","a","1700","NA","NA","13008","1700","2","2122","legacy","large","1024","2","48000","-16","experiment","4_9_mult_true.jpg","8","even","legacy","94835","NA","60073","NA","NA","2836","NA","2854","58373","94835","97949","15863","56394","2838","mousetracking operator preview effect","0","0","0","no","true","no","1680"
"negative","undefined","1","undefined","undefined","white","no","legacy","legacy","legacy","0","relative","undefined","undefined","12","NA","0","0","0","0","0","0","0","28","28","0","15","0","no","03/17/19 22:13:12","A simple template for the mouse-tracking paradigm","yes","Experiment-TF.osexp","C:\Users\Kristen\Documents\opPreviewExperiment-master\procedure","no","mono","no","24","no","black","no","yes","1050","legacy","12","15","C:/Users/Kristen/Documents/opPreviewExperiment-master/procedure/subject-8.csv","legacy","Kafkaesque Koffka","3.2.6","mult","0","l","NA","NA","a","a","1700","NA","NA","13008","1700","2","1284","legacy","small","1024","2","48000","-16","experiment","5_3_mult_FNI.jpg","8","even","legacy","97969","NA","60073","NA","NA","2836","NA","2854","58373","97969","100416","15863","56394","2838","mousetracking operator preview effect","0","0","0","no","false","no","1680"
"neutral","undefined","0","undefined","undefined","white","no","legacy","legacy","legacy","0","relative","undefined","undefined","13","NA","0","0","0","0","0","0","0","29","29","0","15","0","no","03/17/19 22:13:12","A simple template for the mouse-tracking paradigm","yes","Experiment-TF.osexp","C:\Users\Kristen\Documents\opPreviewExperiment-master\procedure","no","mono","no","24","no","black","no","yes","1050","legacy","13","15","C:/Users/Kristen/Documents/opPreviewExperiment-master/procedure/subject-8.csv","legacy","Kafkaesque Koffka","3.2.6","mult","0","l","NA","NA","a","a","1700","NA","NA","13008","1700","2","2270","legacy","large","1024","2","48000","-16","experiment","6_8_mult_true.jpg","8","even","legacy","100445","NA","60073","NA","NA","2836","NA","2854","58373","100445","104733","15863","56394","2838","mousetracking operator preview effect","0","0","0","no","true","no","1680"
"neutral","undefined","1","undefined","undefined","white","no","legacy","legacy","legacy","0","relative","undefined","undefined","14","NA","0","0","0","0","0","0","0","30","30","0","15","0","no","03/17/19 22:13:12","A simple template for the mouse-tracking paradigm","yes","Experiment-TF.osexp","C:\Users\Kristen\Documents\opPreviewExperiment-master\procedure","no","mono","no","24","no","black","no","yes","1050","legacy","14","15","C:/Users/Kristen/Documents/opPreviewExperiment-master/procedure/subject-8.csv","legacy","Kafkaesque Koffka","3.2.6","mult","0","l","NA","NA","a","a","1700","NA","NA","13008","1700","2","2604","legacy","small","1024","2","48000","-16","experiment","8_2_mult_FI.jpg","8","even","legacy","104754","NA","60073","NA","NA","2836","NA","2854","58373","104755","108354","15863","56394","2838","mousetracking operator preview effect","0","0","0","no","false","no","1680"
"negative","undefined","1","undefined","undefined","white","no","legacy","legacy","legacy","0","relative","undefined","undefined","15","NA","0","0","0","0","0","0","0","31","31","0","15","0","no","03/17/19 22:13:12","A simple template for the mouse-tracking paradigm","yes","Experiment-TF.osexp","C:\Users\Kristen\Documents\opPreviewExperiment-master\procedure","no","mono","no","24","no","black","no","yes","1050","legacy","15","15","C:/Users/Kristen/Documents/opPreviewExperiment-master/procedure/subject-8.csv","legacy","Kafkaesque Koffka","3.2.6","mult","0","l","NA","NA","a","a","1700","NA","NA","13008","1700","2","1489","legacy","large","1024","2","48000","-16","experiment","4_9_mult_FI.jpg","8","even","legacy","108372","NA","60073","NA","NA","2836","NA","2854","58373","108372","111007","15863","56394","2838","mousetracking operator preview effect","0","0","0","no","false","no","1680"
"neutral","undefined","1","undefined","undefined","white","no","legacy","legacy","legacy","0","relative","undefined","undefined","16","NA","0","0","0","0","0","0","0","32","32","0","15","0","no","03/17/19 22:13:12","A simple template for the mouse-tracking paradigm","yes","Experiment-TF.osexp","C:\Users\Kristen\Documents\opPreviewExperiment-master\procedure","no","mono","no","24","no","black","no","yes","1050","legacy","16","15","C:/Users/Kristen/Documents/opPreviewExperiment-master/procedure/subject-8.csv","legacy","Kafkaesque Koffka","3.2.6","add","0","a","NA","NA","a","a","1700","NA","NA","13008","1700","2","2570","legacy","large","1024","2","48000","-16","experiment","9_7_add_true.jpg","8","even","legacy","111037","NA","60073","NA","NA","2836","NA","2854","58373","111037","114558","15863","56394","2838","mousetracking operator preview effect","0","0","0","no","true","no","1680"
"negative","undefined","1","undefined","undefined","white","no","legacy","legacy","legacy","0","relative","undefined","undefined","17","NA","0","0","0","0","0","0","0","33","33","0","15","0","no","03/17/19 22:13:12","A simple template for the mouse-tracking paradigm","yes","Experiment-TF.osexp","C:\Users\Kristen\Documents\opPreviewExperiment-master\procedure","no","mono","no","24","no","black","no","yes","1050","legacy","17","15","C:/Users/Kristen/Documents/opPreviewExperiment-master/procedure/subject-8.csv","legacy","Kafkaesque Koffka","3.2.6","mult","0","l","NA","NA","a","a","1700","NA","NA","13008","1700","2","6303","legacy","small","1024","2","48000","-16","experiment","2_7_mult_FI.jpg","8","even","legacy","114578","NA","60073","NA","NA","2836","NA","2854","58373","114578","122032","15863","56394","2838","mousetracking operator preview effect","0","0","0","no","false","no","1680"
"negative","undefined","1","undefined","undefined","white","no","legacy","legacy","legacy","0","relative","undefined","undefined","18","NA","0","0","0","0","0","0","0","34","34","0","15","0","no","03/17/19 22:13:12","A simple template for the mouse-tracking paradigm","yes","Experiment-TF.osexp","C:\Users\Kristen\Documents\opPreviewExperiment-master\procedure","no","mono","no","24","no","black","no","yes","1050","legacy","18","15","C:/Users/Kristen/Documents/opPreviewExperiment-master/procedure/subject-8.csv","legacy","Kafkaesque Koffka","3.2.6","mult","0","a","NA","NA","a","a","1700","NA","NA","13008","1700","2","962","legacy","small","1024","2","48000","-16","experiment","3_6_mult_true.jpg","8","even","legacy","122055","NA","60073","NA","NA","2836","NA","2854","58373","122055","124179","15863","56394","2838","mousetracking operator preview effect","0","0","0","no","true","no","1680"
"neutral","undefined","1","undefined","undefined","white","no","legacy","legacy","legacy","0","relative","undefined","undefined","19","NA","0","0","0","0","0","0","0","35","35","0","15","0","no","03/17/19 22:13:12","A simple template for the mouse-tracking paradigm","yes","Experiment-TF.osexp","C:\Users\Kristen\Documents\opPreviewExperiment-master\procedure","no","mono","no","24","no","black","no","yes","1050","legacy","19","15","C:/Users/Kristen/Documents/opPreviewExperiment-master/procedure/subject-8.csv","legacy","Kafkaesque Koffka","3.2.6","add","0","l","NA","NA","a","a","1700","NA","NA","13008","1700","2","1300","legacy","small","1024","2","48000","-16","experiment","3_6_add_FI.jpg","8","even","legacy","124207","NA","60073","NA","NA","2836","NA","2854","58373","124207","126488","15863","56394","2838","mousetracking operator preview effect","0","0","0","no","false","no","1680"
"neutral","undefined","0","undefined","undefined","white","no","legacy","legacy","legacy","0","relative","undefined","undefined","20","NA","0","0","0","0","0","0","0","36","36","0","15","0","no","03/17/19 22:13:12","A simple template for the mouse-tracking paradigm","yes","Experiment-TF.osexp","C:\Users\Kristen\Documents\opPreviewExperiment-master\procedure","no","mono","no","24","no","black","no","yes","1050","legacy","20","15","C:/Users/Kristen/Documents/opPreviewExperiment-master/procedure/subject-8.csv","legacy","Kafkaesque Koffka","3.2.6","add","0","a","NA","NA","a","a","1700","NA","NA","13008","1700","2","1924","legacy","large","1024","2","48000","-16","experiment","6_8_add_FNI.jpg","8","even","legacy","126517","NA","60073","NA","NA","2836","NA","2854","58373","126517","130458","15863","56394","2838","mousetracking operator preview effect","0","0","0","no","false","no","1680"
"negative","undefined","1","undefined","undefined","white","no","legacy","legacy","legacy","0","relative","undefined","undefined","21","NA","0","0","0","0","0","0","0","37","37","0","15","0","no","03/17/19 22:13:12","A simple template for the mouse-tracking paradigm","yes","Experiment-TF.osexp","C:\Users\Kristen\Documents\opPreviewExperiment-master\procedure","no","mono","no","24","no","black","no","yes","1050","legacy","21","15","C:/Users/Kristen/Documents/opPreviewExperiment-master/procedure/subject-8.csv","legacy","Kafkaesque Koffka","3.2.6","add","0","a","NA","NA","a","a","1700","NA","NA","13008","1700","2","2172","legacy","large","1024","2","48000","-16","experiment","4_9_add_true.jpg","8","even","legacy","130497","NA","60073","NA","NA","2836","NA","2854","58373","130498","133828","15863","56394","2838","mousetracking operator preview effect","0","0","0","no","true","no","1680"
"negative","undefined","1","undefined","undefined","white","no","legacy","legacy","legacy","0","relative","undefined","undefined","22","NA","0","0","0","0","0","0","0","38","38","0","15","0","no","03/17/19 22:13:12","A simple template for the mouse-tracking paradigm","yes","Experiment-TF.osexp","C:\Users\Kristen\Documents\opPreviewExperiment-master\procedure","no","mono","no","24","no","black","no","yes","1050","legacy","22","15","C:/Users/Kristen/Documents/opPreviewExperiment-master/procedure/subject-8.csv","legacy","Kafkaesque Koffka","3.2.6","add","0","l","NA","NA","a","a","1700","NA","NA","13008","1700","2","2066","legacy","large","1024","2","48000","-16","experiment","9_7_add_FNI.jpg","8","even","legacy","133841","NA","60073","NA","NA","2836","NA","2854","58373","133841","137033","15863","56394","2838","mousetracking operator preview effect","0","0","0","no","false","no","1680"
"negative","undefined","1","undefined","undefined","white","no","legacy","legacy","legacy","0","relative","undefined","undefined","23","NA","0","0","0","0","0","0","0","39","39","0","15","0","no","03/17/19 22:13:12","A simple template for the mouse-tracking paradigm","yes","Experiment-TF.osexp","C:\Users\Kristen\Documents\opPreviewExperiment-master\procedure","no","mono","no","24","no","black","no","yes","1050","legacy","23","15","C:/Users/Kristen/Documents/opPreviewExperiment-master/procedure/subject-8.csv","legacy","Kafkaesque Koffka","3.2.6","add","0","a","NA","NA","a","a","1700","NA","NA","13008","1700","2","979","legacy","large","1024","2","48000","-16","experiment","8_4_add_true.jpg","8","even","legacy","137063","NA","60073","NA","NA","2836","NA","2854","58373","137063","139174","15863","56394","2838","mousetracking operator preview effect","0","0","0","no","true","no","1680"
"neutral","undefined","1","undefined","undefined","white","no","legacy","legacy","legacy","0","relative","undefined","undefined","24","NA","0","0","0","0","0","0","0","40","40","0","15","0","no","03/17/19 22:13:12","A simple template for the mouse-tracking paradigm","yes","Experiment-TF.osexp","C:\Users\Kristen\Documents\opPreviewExperiment-master\procedure","no","mono","no","24","no","black","no","yes","1050","legacy","24","15","C:/Users/Kristen/Documents/opPreviewExperiment-master/procedure/subject-8.csv","legacy","Kafkaesque Koffka","3.2.6","add","0","a","NA","NA","a","a","1700","NA","NA","13008","1700","2","1030","legacy","small","1024","2","48000","-16","experiment","5_3_add_true.jpg","8","even","legacy","139195","NA","60073","NA","NA","2836","NA","2854","58373","139195","141222","15863","56394","2838","mousetracking operator preview effect","0","0","0","no","true","no","1680"
"negative","undefined","1","undefined","undefined","white","no","legacy","legacy","legacy","0","relative","undefined","undefined","25","NA","0","0","0","0","0","0","0","41","41","0","15","0","no","03/17/19 22:13:12","A simple template for the mouse-tracking paradigm","yes","Experiment-TF.osexp","C:\Users\Kristen\Documents\opPreviewExperiment-master\procedure","no","mono","no","24","no","black","no","yes","1050","legacy","25","15","C:/Users/Kristen/Documents/opPreviewExperiment-master/procedure/subject-8.csv","legacy","Kafkaesque Koffka","3.2.6","add","0","l","NA","NA","a","a","1700","NA","NA","13008","1700","2","1072","legacy","small","1024","2","48000","-16","experiment","8_2_add_FI.jpg","8","even","legacy","141245","NA","60073","NA","NA","2836","NA","2854","58373","141245","143461","15863","56394","2838","mousetracking operator preview effect","0","0","0","no","false","no","1680"
"neutral","undefined","1","undefined","undefined","white","no","legacy","legacy","legacy","0","relative","undefined","undefined","26","NA","0","0","0","0","0","0","0","42","42","0","15","0","no","03/17/19 22:13:12","A simple template for the mouse-tracking paradigm","yes","Experiment-TF.osexp","C:\Users\Kristen\Documents\opPreviewExperiment-master\procedure","no","mono","no","24","no","black","no","yes","1050","legacy","26","15","C:/Users/Kristen/Documents/opPreviewExperiment-master/procedure/subject-8.csv","legacy","Kafkaesque Koffka","3.2.6","add","0","l","NA","NA","a","a","1700","NA","NA","13008","1700","2","1462","legacy","small","1024","2","48000","-16","experiment","2_7_add_FI.jpg","8","even","legacy","143481","NA","60073","NA","NA","2836","NA","2854","58373","143481","145945","15863","56394","2838","mousetracking operator preview effect","0","0","0","no","false","no","1680"
"negative","undefined","1","undefined","undefined","white","no","legacy","legacy","legacy","0","relative","undefined","undefined","27","NA","0","0","0","0","0","0","0","43","43","0","15","0","no","03/17/19 22:13:12","A simple template for the mouse-tracking paradigm","yes","Experiment-TF.osexp","C:\Users\Kristen\Documents\opPreviewExperiment-master\procedure","no","mono","no","24","no","black","no","yes","1050","legacy","27","15","C:/Users/Kristen/Documents/opPreviewExperiment-master/procedure/subject-8.csv","legacy","Kafkaesque Koffka","3.2.6","mult","0","l","NA","NA","a","a","1700","NA","NA","13008","1700","2","1250","legacy","small","1024","2","48000","-16","experiment","5_3_mult_FI.jpg","8","even","legacy","145966","NA","60073","NA","NA","2836","NA","2854","58373","145966","148366","15863","56394","2838","mousetracking operator preview effect","0","0","0","no","false","no","1680"
"negative","undefined","1","undefined","undefined","white","no","legacy","legacy","legacy","0","relative","undefined","undefined","28","NA","0","0","0","0","0","0","0","44","44","0","15","0","no","03/17/19 22:13:12","A simple template for the mouse-tracking paradigm","yes","Experiment-TF.osexp","C:\Users\Kristen\Documents\opPreviewExperiment-master\procedure","no","mono","no","24","no","black","no","yes","1050","legacy","28","15","C:/Users/Kristen/Documents/opPreviewExperiment-master/procedure/subject-8.csv","legacy","Kafkaesque Koffka","3.2.6","add","0","l","NA","NA","a","a","1700","NA","NA","13008","1700","2","1150","legacy","small","1024","2","48000","-16","experiment","5_3_add_FI.jpg","8","even","legacy","148380","NA","60073","NA","NA","2836","NA","2854","58373","148380","150672","15863","56394","2838","mousetracking operator preview effect","0","0","0","no","false","no","1680"
"negative","undefined","1","undefined","undefined","white","no","legacy","legacy","legacy","0","relative","undefined","undefined","29","NA","0","0","0","0","0","0","0","45","45","0","15","0","no","03/17/19 22:13:12","A simple template for the mouse-tracking paradigm","yes","Experiment-TF.osexp","C:\Users\Kristen\Documents\opPreviewExperiment-master\procedure","no","mono","no","24","no","black","no","yes","1050","legacy","29","15","C:/Users/Kristen/Documents/opPreviewExperiment-master/procedure/subject-8.csv","legacy","Kafkaesque Koffka","3.2.6","mult","0","a","NA","NA","a","a","1700","NA","NA","13008","1700","2","1300","legacy","large","1024","2","48000","-16","experiment","8_4_mult_true.jpg","8","even","legacy","150693","NA","60073","NA","NA","2836","NA","2854","58373","150693","153138","15863","56394","2838","mousetracking operator preview effect","0","0","0","no","true","no","1680"
"neutral","undefined","1","undefined","undefined","white","no","legacy","legacy","legacy","0","relative","undefined","undefined","30","NA","0","0","0","0","0","0","0","46","46","0","15","0","no","03/17/19 22:13:12","A simple template for the mouse-tracking paradigm","yes","Experiment-TF.osexp","C:\Users\Kristen\Documents\opPreviewExperiment-master\procedure","no","mono","no","24","no","black","no","yes","1050","legacy","30","15","C:/Users/Kristen/Documents/opPreviewExperiment-master/procedure/subject-8.csv","legacy","Kafkaesque Koffka","3.2.6","add","0","l","NA","NA","a","a","1700","NA","NA","13008","1700","2","1448","legacy","large","1024","2","48000","-16","experiment","9_7_add_FNI.jpg","8","even","legacy","153169","NA","60073","NA","NA","2836","NA","2854","58373","153169","155593","15863","56394","2838","mousetracking operator preview effect","0","0","0","no","false","no","1680"
"neutral","undefined","1","undefined","undefined","white","no","legacy","legacy","legacy","0","relative","undefined","undefined","31","NA","0","0","0","0","0","0","0","47","47","0","15","0","no","03/17/19 22:13:12","A simple template for the mouse-tracking paradigm","yes","Experiment-TF.osexp","C:\Users\Kristen\Documents\opPreviewExperiment-master\procedure","no","mono","no","24","no","black","no","yes","1050","legacy","31","15","C:/Users/Kristen/Documents/opPreviewExperiment-master/procedure/subject-8.csv","legacy","Kafkaesque Koffka","3.2.6","add","0","a","NA","NA","a","a","1700","NA","NA","13008","1700","2","1156","legacy","small","1024","2","48000","-16","experiment","2_7_add_true.jpg","8","even","legacy","155613","NA","60073","NA","NA","2836","NA","2854","58373","155613","157746","15863","56394","2838","mousetracking operator preview effect","0","0","0","no","true","no","1680"
"neutral","undefined","1","undefined","undefined","white","no","legacy","legacy","legacy","0","relative","undefined","undefined","32","NA","0","0","0","0","0","0","0","48","48","0","15","0","no","03/17/19 22:13:12","A simple template for the mouse-tracking paradigm","yes","Experiment-TF.osexp","C:\Users\Kristen\Documents\opPreviewExperiment-master\procedure","no","mono","no","24","no","black","no","yes","1050","legacy","32","15","C:/Users/Kristen/Documents/opPreviewExperiment-master/procedure/subject-8.csv","legacy","Kafkaesque Koffka","3.2.6","mult","0","a","NA","NA","a","a","1700","NA","NA","13008","1700","2","980","legacy","large","1024","2","48000","-16","experiment","9_7_mult_true.jpg","8","even","legacy","157774","NA","60073","NA","NA","2836","NA","2854","58373","157774","159715","15863","56394","2838","mousetracking operator preview effect","0","0","0","no","true","no","1680"
"negative","undefined","1","undefined","undefined","white","no","legacy","legacy","legacy","0","relative","undefined","undefined","33","NA","0","0","0","0","0","0","0","49","49","0","15","0","no","03/17/19 22:13:12","A simple template for the mouse-tracking paradigm","yes","Experiment-TF.osexp","C:\Users\Kristen\Documents\opPreviewExperiment-master\procedure","no","mono","no","24","no","black","no","yes","1050","legacy","33","15","C:/Users/Kristen/Documents/opPreviewExperiment-master/procedure/subject-8.csv","legacy","Kafkaesque Koffka","3.2.6","mult","0","l","NA","NA","a","a","1700","NA","NA","13008","1700","2","1334","legacy","small","1024","2","48000","-16","experiment","2_7_mult_FNI.jpg","8","even","legacy","159743","NA","60073","NA","NA","2836","NA","2854","58373","159743","162256","15863","56394","2838","mousetracking operator preview effect","0","0","0","no","false","no","1680"
"negative","undefined","1","undefined","undefined","white","no","legacy","legacy","legacy","0","relative","undefined","undefined","34","NA","0","0","0","0","0","0","0","50","50","0","15","0","no","03/17/19 22:13:12","A simple template for the mouse-tracking paradigm","yes","Experiment-TF.osexp","C:\Users\Kristen\Documents\opPreviewExperiment-master\procedure","no","mono","no","24","no","black","no","yes","1050","legacy","34","15","C:/Users/Kristen/Documents/opPreviewExperiment-master/procedure/subject-8.csv","legacy","Kafkaesque Koffka","3.2.6","mult","0","a","NA","NA","a","a","1700","NA","NA","13008","1700","2","974","legacy","small","1024","2","48000","-16","experiment","5_3_mult_true.jpg","8","even","legacy","162285","NA","60073","NA","NA","2836","NA","2854","58373","162285","164438","15863","56394","2838","mousetracking operator preview effect","0","0","0","no","true","no","1680"
"neutral","undefined","1","undefined","undefined","white","no","legacy","legacy","legacy","0","relative","undefined","undefined","35","NA","0","0","0","0","0","0","0","51","51","0","15","0","no","03/17/19 22:13:12","A simple template for the mouse-tracking paradigm","yes","Experiment-TF.osexp","C:\Users\Kristen\Documents\opPreviewExperiment-master\procedure","no","mono","no","24","no","black","no","yes","1050","legacy","35","15","C:/Users/Kristen/Documents/opPreviewExperiment-master/procedure/subject-8.csv","legacy","Kafkaesque Koffka","3.2.6","mult","0","l","NA","NA","a","a","1700","NA","NA","13008","1700","2","2605","legacy","small","1024","2","48000","-16","experiment","3_6_mult_FNI.jpg","8","even","legacy","164459","NA","60073","NA","NA","2836","NA","2854","58373","164459","168046","15863","56394","2838","mousetracking operator preview effect","0","0","0","no","false","no","1680"
"neutral","undefined","1","undefined","undefined","white","no","legacy","legacy","legacy","0","relative","undefined","undefined","36","NA","0","0","0","0","0","0","0","52","52","0","15","0","no","03/17/19 22:13:12","A simple template for the mouse-tracking paradigm","yes","Experiment-TF.osexp","C:\Users\Kristen\Documents\opPreviewExperiment-master\procedure","no","mono","no","24","no","black","no","yes","1050","legacy","36","15","C:/Users/Kristen/Documents/opPreviewExperiment-master/procedure/subject-8.csv","legacy","Kafkaesque Koffka","3.2.6","mult","0","a","NA","NA","a","a","1700","NA","NA","13008","1700","2","1669","legacy","large","1024","2","48000","-16","experiment","4_9_mult_true.jpg","8","even","legacy","168064","NA","60073","NA","NA","2836","NA","2854","58373","168064","170711","15863","56394","2838","mousetracking operator preview effect","0","0","0","no","true","no","1680"
"neutral","undefined","1","undefined","undefined","white","no","legacy","legacy","legacy","0","relative","undefined","undefined","37","NA","0","0","0","0","0","0","0","53","53","0","15","0","no","03/17/19 22:13:12","A simple template for the mouse-tracking paradigm","yes","Experiment-TF.osexp","C:\Users\Kristen\Documents\opPreviewExperiment-master\procedure","no","mono","no","24","no","black","no","yes","1050","legacy","37","15","C:/Users/Kristen/Documents/opPreviewExperiment-master/procedure/subject-8.csv","legacy","Kafkaesque Koffka","3.2.6","add","0","a","NA","NA","a","a","1700","NA","NA","13008","1700","2","728","legacy","small","1024","2","48000","-16","experiment","8_2_add_true.jpg","8","even","legacy","170735","NA","60073","NA","NA","2836","NA","2854","58373","170735","172444","15863","56394","2838","mousetracking operator preview effect","0","0","0","no","true","no","1680"
"neutral","undefined","1","undefined","undefined","white","no","legacy","legacy","legacy","0","relative","undefined","undefined","38","NA","0","0","0","0","0","0","0","54","54","0","15","0","no","03/17/19 22:13:12","A simple template for the mouse-tracking paradigm","yes","Experiment-TF.osexp","C:\Users\Kristen\Documents\opPreviewExperiment-master\procedure","no","mono","no","24","no","black","no","yes","1050","legacy","38","15","C:/Users/Kristen/Documents/opPreviewExperiment-master/procedure/subject-8.csv","legacy","Kafkaesque Koffka","3.2.6","add","0","a","NA","NA","a","a","1700","NA","NA","13008","1700","2","765","legacy","small","1024","2","48000","-16","experiment","5_3_add_true.jpg","8","even","legacy","172469","NA","60073","NA","NA","2836","NA","2854","58373","172469","174209","15863","56394","2838","mousetracking operator preview effect","0","0","0","no","true","no","1680"
"neutral","undefined","1","undefined","undefined","white","no","legacy","legacy","legacy","0","relative","undefined","undefined","39","NA","0","0","0","0","0","0","0","55","55","0","15","0","no","03/17/19 22:13:12","A simple template for the mouse-tracking paradigm","yes","Experiment-TF.osexp","C:\Users\Kristen\Documents\opPreviewExperiment-master\procedure","no","mono","no","24","no","black","no","yes","1050","legacy","39","15","C:/Users/Kristen/Documents/opPreviewExperiment-master/procedure/subject-8.csv","legacy","Kafkaesque Koffka","3.2.6","mult","0","l","NA","NA","a","a","1700","NA","NA","13008","1700","2","986","legacy","small","1024","2","48000","-16","experiment","8_2_mult_FNI.jpg","8","even","legacy","174236","NA","60073","NA","NA","2836","NA","2854","58373","174236","176226","15863","56394","2838","mousetracking operator preview effect","0","0","0","no","false","no","1680"
"neutral","undefined","1","undefined","undefined","white","no","legacy","legacy","legacy","0","relative","undefined","undefined","40","NA","0","0","0","0","0","0","0","56","56","0","15","0","no","03/17/19 22:13:12","A simple template for the mouse-tracking paradigm","yes","Experiment-TF.osexp","C:\Users\Kristen\Documents\opPreviewExperiment-master\procedure","no","mono","no","24","no","black","no","yes","1050","legacy","40","15","C:/Users/Kristen/Documents/opPreviewExperiment-master/procedure/subject-8.csv","legacy","Kafkaesque Koffka","3.2.6","mult","0","a","NA","NA","a","a","1700","NA","NA","13008","1700","2","1020","legacy","large","1024","2","48000","-16","experiment","6_8_mult_true.jpg","8","even","legacy","176254","NA","60073","NA","NA","2836","NA","2854","58373","176254","178256","15863","56394","2838","mousetracking operator preview effect","0","0","0","no","true","no","1680"
"negative","undefined","1","undefined","undefined","white","no","legacy","legacy","legacy","0","relative","undefined","undefined","41","NA","0","0","0","0","0","0","0","57","57","0","15","0","no","03/17/19 22:13:12","A simple template for the mouse-tracking paradigm","yes","Experiment-TF.osexp","C:\Users\Kristen\Documents\opPreviewExperiment-master\procedure","no","mono","no","24","no","black","no","yes","1050","legacy","41","15","C:/Users/Kristen/Documents/opPreviewExperiment-master/procedure/subject-8.csv","legacy","Kafkaesque Koffka","3.2.6","add","0","l","NA","NA","a","a","1700","NA","NA","13008","1700","2","1828","legacy","small","1024","2","48000","-16","experiment","3_6_add_FNI.jpg","8","even","legacy","178277","NA","60073","NA","NA","2836","NA","2854","58373","178277","181279","15863","56394","2838","mousetracking operator preview effect","0","0","0","no","false","no","1680"
"neutral","undefined","1","undefined","undefined","white","no","legacy","legacy","legacy","0","relative","undefined","undefined","42","NA","0","0","0","0","0","0","0","58","58","0","15","0","no","03/17/19 22:13:12","A simple template for the mouse-tracking paradigm","yes","Experiment-TF.osexp","C:\Users\Kristen\Documents\opPreviewExperiment-master\procedure","no","mono","no","24","no","black","no","yes","1050","legacy","42","15","C:/Users/Kristen/Documents/opPreviewExperiment-master/procedure/subject-8.csv","legacy","Kafkaesque Koffka","3.2.6","mult","0","a","NA","NA","a","a","1700","NA","NA","13008","1700","2","1124","legacy","small","1024","2","48000","-16","experiment","5_3_mult_true.jpg","8","even","legacy","181294","NA","60073","NA","NA","2836","NA","2854","58373","181294","183396","15863","56394","2838","mousetracking operator preview effect","0","0","0","no","true","no","1680"
"negative","undefined","1","undefined","undefined","white","no","legacy","legacy","legacy","0","relative","undefined","undefined","43","NA","0","0","0","0","0","0","0","59","59","0","15","0","no","03/17/19 22:13:12","A simple template for the mouse-tracking paradigm","yes","Experiment-TF.osexp","C:\Users\Kristen\Documents\opPreviewExperiment-master\procedure","no","mono","no","24","no","black","no","yes","1050","legacy","43","15","C:/Users/Kristen/Documents/opPreviewExperiment-master/procedure/subject-8.csv","legacy","Kafkaesque Koffka","3.2.6","add","0","a","NA","NA","a","a","1700","NA","NA","13008","1700","2","1090","legacy","small","1024","2","48000","-16","experiment","5_3_add_true.jpg","8","even","legacy","183410","NA","60073","NA","NA","2836","NA","2854","58373","183410","185649","15863","56394","2838","mousetracking operator preview effect","0","0","0","no","true","no","1680"
"negative","undefined","1","undefined","undefined","white","no","legacy","legacy","legacy","0","relative","undefined","undefined","44","NA","0","0","0","0","0","0","0","60","60","0","15","0","no","03/17/19 22:13:12","A simple template for the mouse-tracking paradigm","yes","Experiment-TF.osexp","C:\Users\Kristen\Documents\opPreviewExperiment-master\procedure","no","mono","no","24","no","black","no","yes","1050","legacy","44","15","C:/Users/Kristen/Documents/opPreviewExperiment-master/procedure/subject-8.csv","legacy","Kafkaesque Koffka","3.2.6","mult","0","a","NA","NA","a","a","1700","NA","NA","13008","1700","2","5873","legacy","large","1024","2","48000","-16","experiment","6_8_mult_true.jpg","8","even","legacy","185680","NA","60073","NA","NA","2836","NA","2854","58373","185680","192710","15863","56394","2838","mousetracking operator preview effect","0","0","0","no","true","no","1680"
"negative","undefined","1","undefined","undefined","white","no","legacy","legacy","legacy","0","relative","undefined","undefined","45","NA","0","0","0","0","0","0","0","61","61","0","15","0","no","03/17/19 22:13:12","A simple template for the mouse-tracking paradigm","yes","Experiment-TF.osexp","C:\Users\Kristen\Documents\opPreviewExperiment-master\procedure","no","mono","no","24","no","black","no","yes","1050","legacy","45","15","C:/Users/Kristen/Documents/opPreviewExperiment-master/procedure/subject-8.csv","legacy","Kafkaesque Koffka","3.2.6","add","0","l","NA","NA","a","a","1700","NA","NA","13008","1700","2","1534","legacy","small","1024","2","48000","-16","experiment","2_7_add_FNI.jpg","8","even","legacy","192741","NA","60073","NA","NA","2836","NA","2854","58373","192741","195440","15863","56394","2838","mousetracking operator preview effect","0","0","0","no","false","no","1680"
"negative","undefined","1","undefined","undefined","white","no","legacy","legacy","legacy","0","relative","undefined","undefined","46","NA","0","0","0","0","0","0","0","62","62","0","15","0","no","03/17/19 22:13:12","A simple template for the mouse-tracking paradigm","yes","Experiment-TF.osexp","C:\Users\Kristen\Documents\opPreviewExperiment-master\procedure","no","mono","no","24","no","black","no","yes","1050","legacy","46","15","C:/Users/Kristen/Documents/opPreviewExperiment-master/procedure/subject-8.csv","legacy","Kafkaesque Koffka","3.2.6","add","0","a","NA","NA","a","a","1700","NA","NA","13008","1700","2","857","legacy","small","1024","2","48000","-16","experiment","2_7_add_true.jpg","8","even","legacy","195461","NA","60073","NA","NA","2836","NA","2854","58373","195461","197464","15863","56394","2838","mousetracking operator preview effect","0","0","0","no","true","no","1680"
"negative","undefined","1","undefined","undefined","white","no","legacy","legacy","legacy","0","relative","undefined","undefined","47","NA","0","0","0","0","0","0","0","63","63","0","15","0","no","03/17/19 22:13:12","A simple template for the mouse-tracking paradigm","yes","Experiment-TF.osexp","C:\Users\Kristen\Documents\opPreviewExperiment-master\procedure","no","mono","no","24","no","black","no","yes","1050","legacy","47","15","C:/Users/Kristen/Documents/opPreviewExperiment-master/procedure/subject-8.csv","legacy","Kafkaesque Koffka","3.2.6","add","0","a","NA","NA","a","a","1700","NA","NA","13008","1700","2","644","legacy","small","1024","2","48000","-16","experiment","8_2_add_true.jpg","8","even","legacy","197492","NA","60073","NA","NA","2836","NA","2854","58373","197492","199277","15863","56394","2838","mousetracking operator preview effect","0","0","0","no","true","no","1680"
"negative","undefined","1","undefined","undefined","white","no","legacy","legacy","legacy","0","relative","undefined","undefined","48","NA","0","0","0","0","0","0","0","64","64","0","15","0","no","03/17/19 22:13:12","A simple template for the mouse-tracking paradigm","yes","Experiment-TF.osexp","C:\Users\Kristen\Documents\opPreviewExperiment-master\procedure","no","mono","no","24","no","black","no","yes","1050","legacy","48","15","C:/Users/Kristen/Documents/opPreviewExperiment-master/procedure/subject-8.csv","legacy","Kafkaesque Koffka","3.2.6","add","0","l","NA","NA","a","a","1700","NA","NA","13008","1700","2","1403","legacy","large","1024","2","48000","-16","experiment","8_4_add_FNI.jpg","8","even","legacy","199305","NA","60073","NA","NA","2836","NA","2854","58373","199305","201876","15863","56394","2838","mousetracking operator preview effect","0","0","0","no","false","no","1680"
"negative","undefined","1","undefined","undefined","white","no","legacy","legacy","legacy","0","relative","undefined","undefined","49","NA","0","0","0","0","0","0","0","65","65","0","15","0","no","03/17/19 22:13:12","A simple template for the mouse-tracking paradigm","yes","Experiment-TF.osexp","C:\Users\Kristen\Documents\opPreviewExperiment-master\procedure","no","mono","no","24","no","black","no","yes","1050","legacy","49","15","C:/Users/Kristen/Documents/opPreviewExperiment-master/procedure/subject-8.csv","legacy","Kafkaesque Koffka","3.2.6","add","0","a","NA","NA","a","a","1700","NA","NA","13008","1700","2","1948","legacy","small","1024","2","48000","-16","experiment","3_6_add_true.jpg","8","even","legacy","201898","NA","60073","NA","NA","2836","NA","2854","58373","201898","205020","15863","56394","2838","mousetracking operator preview effect","0","0","0","no","true","no","1680"
"negative","undefined","0","undefined","undefined","white","no","legacy","legacy","legacy","0","relative","undefined","undefined","50","NA","0","0","0","0","0","0","0","66","66","0","15","0","no","03/17/19 22:13:12","A simple template for the mouse-tracking paradigm","yes","Experiment-TF.osexp","C:\Users\Kristen\Documents\opPreviewExperiment-master\procedure","no","mono","no","24","no","black","no","yes","1050","legacy","50","15","C:/Users/Kristen/Documents/opPreviewExperiment-master/procedure/subject-8.csv","legacy","Kafkaesque Koffka","3.2.6","mult","0","l","NA","NA","a","a","1700","NA","NA","13008","1700","2","3330","legacy","small","1024","2","48000","-16","experiment","8_2_mult_true.jpg","8","even","legacy","205040","NA","60073","NA","NA","2836","NA","2854","58373","205040","210555","15863","56394","2838","mousetracking operator preview effect","0","0","0","no","true","no","1680"
"neutral","undefined","1","undefined","undefined","white","no","legacy","legacy","legacy","0","relative","undefined","undefined","51","NA","0","0","0","0","0","0","0","67","67","0","15","0","no","03/17/19 22:13:12","A simple template for the mouse-tracking paradigm","yes","Experiment-TF.osexp","C:\Users\Kristen\Documents\opPreviewExperiment-master\procedure","no","mono","no","24","no","black","no","yes","1050","legacy","51","15","C:/Users/Kristen/Documents/opPreviewExperiment-master/procedure/subject-8.csv","legacy","Kafkaesque Koffka","3.2.6","mult","0","l","NA","NA","a","a","1700","NA","NA","13008","1700","2","3585","legacy","large","1024","2","48000","-16","experiment","6_8_mult_FI.jpg","8","even","legacy","210595","NA","60073","NA","NA","2836","NA","2854","58373","210596","215176","15863","56394","2838","mousetracking operator preview effect","0","0","0","no","false","no","1680"
"neutral","undefined","1","undefined","undefined","white","no","legacy","legacy","legacy","0","relative","undefined","undefined","52","NA","0","0","0","0","0","0","0","68","68","0","15","0","no","03/17/19 22:13:12","A simple template for the mouse-tracking paradigm","yes","Experiment-TF.osexp","C:\Users\Kristen\Documents\opPreviewExperiment-master\procedure","no","mono","no","24","no","black","no","yes","1050","legacy","52","15","C:/Users/Kristen/Documents/opPreviewExperiment-master/procedure/subject-8.csv","legacy","Kafkaesque Koffka","3.2.6","add","0","a","NA","NA","a","a","1700","NA","NA","13008","1700","2","1510","legacy","large","1024","2","48000","-16","experiment","4_9_add_true.jpg","8","even","legacy","215207","NA","60073","NA","NA","2836","NA","2854","58373","215207","217695","15863","56394","2838","mousetracking operator preview effect","0","0","0","no","true","no","1680"
"negative","undefined","1","undefined","undefined","white","no","legacy","legacy","legacy","0","relative","undefined","undefined","53","NA","0","0","0","0","0","0","0","69","69","0","15","0","no","03/17/19 22:13:12","A simple template for the mouse-tracking paradigm","yes","Experiment-TF.osexp","C:\Users\Kristen\Documents\opPreviewExperiment-master\procedure","no","mono","no","24","no","black","no","yes","1050","legacy","53","15","C:/Users/Kristen/Documents/opPreviewExperiment-master/procedure/subject-8.csv","legacy","Kafkaesque Koffka","3.2.6","add","0","a","NA","NA","a","a","1700","NA","NA","13008","1700","2","757","legacy","small","1024","2","48000","-16","experiment","3_6_add_true.jpg","8","even","legacy","217716","NA","60073","NA","NA","2836","NA","2854","58373","217716","219619","15863","56394","2838","mousetracking operator preview effect","0","0","0","no","true","no","1680"
"neutral","undefined","1","undefined","undefined","white","no","legacy","legacy","legacy","0","relative","undefined","undefined","54","NA","0","0","0","0","0","0","0","70","70","0","15","0","no","03/17/19 22:13:12","A simple template for the mouse-tracking paradigm","yes","Experiment-TF.osexp","C:\Users\Kristen\Documents\opPreviewExperiment-master\procedure","no","mono","no","24","no","black","no","yes","1050","legacy","54","15","C:/Users/Kristen/Documents/opPreviewExperiment-master/procedure/subject-8.csv","legacy","Kafkaesque Koffka","3.2.6","add","0","a","NA","NA","a","a","1700","NA","NA","13008","1700","2","1333","legacy","large","1024","2","48000","-16","experiment","6_8_add_true.jpg","8","even","legacy","219641","NA","60073","NA","NA","2836","NA","2854","58373","219641","221972","15863","56394","2838","mousetracking operator preview effect","0","0","0","no","true","no","1680"
"negative","undefined","1","undefined","undefined","white","no","legacy","legacy","legacy","0","relative","undefined","undefined","55","NA","0","0","0","0","0","0","0","71","71","0","15","0","no","03/17/19 22:13:12","A simple template for the mouse-tracking paradigm","yes","Experiment-TF.osexp","C:\Users\Kristen\Documents\opPreviewExperiment-master\procedure","no","mono","no","24","no","black","no","yes","1050","legacy","55","15","C:/Users/Kristen/Documents/opPreviewExperiment-master/procedure/subject-8.csv","legacy","Kafkaesque Koffka","3.2.6","mult","0","l","NA","NA","a","a","1700","NA","NA","13008","1700","2","1473","legacy","small","1024","2","48000","-16","experiment","3_6_mult_FI.jpg","8","even","legacy","222005","NA","60073","NA","NA","2836","NA","2854","58373","222005","224627","15863","56394","2838","mousetracking operator preview effect","0","0","0","no","false","no","1680"
"neutral","undefined","1","undefined","undefined","white","no","legacy","legacy","legacy","0","relative","undefined","undefined","56","NA","0","0","0","0","0","0","0","72","72","0","15","0","no","03/17/19 22:13:12","A simple template for the mouse-tracking paradigm","yes","Experiment-TF.osexp","C:\Users\Kristen\Documents\opPreviewExperiment-master\procedure","no","mono","no","24","no","black","no","yes","1050","legacy","56","15","C:/Users/Kristen/Documents/opPreviewExperiment-master/procedure/subject-8.csv","legacy","Kafkaesque Koffka","3.2.6","mult","0","a","NA","NA","a","a","1700","NA","NA","13008","1700","2","1384","legacy","small","1024","2","48000","-16","experiment","8_2_mult_true.jpg","8","even","legacy","224656","NA","60073","NA","NA","2836","NA","2854","58373","224656","227014","15863","56394","2838","mousetracking operator preview effect","0","0","0","no","true","no","1680"
"negative","undefined","1","undefined","undefined","white","no","legacy","legacy","legacy","0","relative","undefined","undefined","57","NA","0","0","0","0","0","0","0","73","73","0","15","0","no","03/17/19 22:13:12","A simple template for the mouse-tracking paradigm","yes","Experiment-TF.osexp","C:\Users\Kristen\Documents\opPreviewExperiment-master\procedure","no","mono","no","24","no","black","no","yes","1050","legacy","57","15","C:/Users/Kristen/Documents/opPreviewExperiment-master/procedure/subject-8.csv","legacy","Kafkaesque Koffka","3.2.6","mult","0","a","NA","NA","a","a","1700","NA","NA","13008","1700","2","1076","legacy","large","1024","2","48000","-16","experiment","4_9_mult_true.jpg","8","even","legacy","227040","NA","60073","NA","NA","2836","NA","2854","58373","227040","229265","15863","56394","2838","mousetracking operator preview effect","0","0","0","no","true","no","1680"
"neutral","undefined","1","undefined","undefined","white","no","legacy","legacy","legacy","0","relative","undefined","undefined","58","NA","0","0","0","0","0","0","0","74","74","0","15","0","no","03/17/19 22:13:12","A simple template for the mouse-tracking paradigm","yes","Experiment-TF.osexp","C:\Users\Kristen\Documents\opPreviewExperiment-master\procedure","no","mono","no","24","no","black","no","yes","1050","legacy","58","15","C:/Users/Kristen/Documents/opPreviewExperiment-master/procedure/subject-8.csv","legacy","Kafkaesque Koffka","3.2.6","mult","0","l","NA","NA","a","a","1700","NA","NA","13008","1700","2","1648","legacy","large","1024","2","48000","-16","experiment","9_7_mult_FNI.jpg","8","even","legacy","229286","NA","60073","NA","NA","2836","NA","2854","58373","229286","231911","15863","56394","2838","mousetracking operator preview effect","0","0","0","no","false","no","1680"
"neutral","undefined","1","undefined","undefined","white","no","legacy","legacy","legacy","0","relative","undefined","undefined","59","NA","0","0","0","0","0","0","0","75","75","0","15","0","no","03/17/19 22:13:12","A simple template for the mouse-tracking paradigm","yes","Experiment-TF.osexp","C:\Users\Kristen\Documents\opPreviewExperiment-master\procedure","no","mono","no","24","no","black","no","yes","1050","legacy","59","15","C:/Users/Kristen/Documents/opPreviewExperiment-master/procedure/subject-8.csv","legacy","Kafkaesque Koffka","3.2.6","mult","0","l","NA","NA","a","a","1700","NA","NA","13008","1700","2","883","legacy","small","1024","2","48000","-16","experiment","2_7_mult_FI.jpg","8","even","legacy","231932","NA","60073","NA","NA","2836","NA","2854","58373","231932","233790","15863","56394","2838","mousetracking operator preview effect","0","0","0","no","false","no","1680"
"neutral","undefined","1","undefined","undefined","white","no","legacy","legacy","legacy","0","relative","undefined","undefined","60","NA","0","0","0","0","0","0","0","76","76","0","15","0","no","03/17/19 22:13:12","A simple template for the mouse-tracking paradigm","yes","Experiment-TF.osexp","C:\Users\Kristen\Documents\opPreviewExperiment-master\procedure","no","mono","no","24","no","black","no","yes","1050","legacy","60","15","C:/Users/Kristen/Documents/opPreviewExperiment-master/procedure/subject-8.csv","legacy","Kafkaesque Koffka","3.2.6","mult","0","a","NA","NA","a","a","1700","NA","NA","13008","1700","2","892","legacy","large","1024","2","48000","-16","experiment","8_4_mult_true.jpg","8","even","legacy","233816","NA","60073","NA","NA","2836","NA","2854","58373","233816","235686","15863","56394","2838","mousetracking operator preview effect","0","0","0","no","true","no","1680"
"neutral","undefined","1","undefined","undefined","white","no","legacy","legacy","legacy","0","relative","undefined","undefined","61","NA","0","0","0","0","0","0","0","77","77","0","15","0","no","03/17/19 22:13:12","A simple template for the mouse-tracking paradigm","yes","Experiment-TF.osexp","C:\Users\Kristen\Documents\opPreviewExperiment-master\procedure","no","mono","no","24","no","black","no","yes","1050","legacy","61","15","C:/Users/Kristen/Documents/opPreviewExperiment-master/procedure/subject-8.csv","legacy","Kafkaesque Koffka","3.2.6","mult","0","a","NA","NA","a","a","1700","NA","NA","13008","1700","2","1482","legacy","small","1024","2","48000","-16","experiment","2_7_mult_true.jpg","8","even","legacy","235711","NA","60073","NA","NA","2836","NA","2854","58373","235711","238187","15863","56394","2838","mousetracking operator preview effect","0","0","0","no","true","no","1680"
"negative","undefined","1","undefined","undefined","white","no","legacy","legacy","legacy","0","relative","undefined","undefined","62","NA","0","0","0","0","0","0","0","78","78","0","15","0","no","03/17/19 22:13:12","A simple template for the mouse-tracking paradigm","yes","Experiment-TF.osexp","C:\Users\Kristen\Documents\opPreviewExperiment-master\procedure","no","mono","no","24","no","black","no","yes","1050","legacy","62","15","C:/Users/Kristen/Documents/opPreviewExperiment-master/procedure/subject-8.csv","legacy","Kafkaesque Koffka","3.2.6","add","0","l","NA","NA","a","a","1700","NA","NA","13008","1700","2","1114","legacy","large","1024","2","48000","-16","experiment","6_8_add_FI.jpg","8","even","legacy","238216","NA","60073","NA","NA","2836","NA","2854","58373","238216","240502","15863","56394","2838","mousetracking operator preview effect","0","0","0","no","false","no","1680"
"negative","undefined","1","undefined","undefined","white","no","legacy","legacy","legacy","0","relative","undefined","undefined","63","NA","0","0","0","0","0","0","0","79","79","0","15","0","no","03/17/19 22:13:12","A simple template for the mouse-tracking paradigm","yes","Experiment-TF.osexp","C:\Users\Kristen\Documents\opPreviewExperiment-master\procedure","no","mono","no","24","no","black","no","yes","1050","legacy","63","15","C:/Users/Kristen/Documents/opPreviewExperiment-master/procedure/subject-8.csv","legacy","Kafkaesque Koffka","3.2.6","mult","0","l","NA","NA","a","a","1700","NA","NA","13008","1700","2","3566","legacy","large","1024","2","48000","-16","experiment","4_9_mult_FNI.jpg","8","even","legacy","240522","NA","60073","NA","NA","2836","NA","2854","58373","240522","245246","15863","56394","2838","mousetracking operator preview effect","0","0","0","no","false","no","1680"
"negative","undefined","1","undefined","undefined","white","no","legacy","legacy","legacy","0","relative","undefined","undefined","64","NA","0","0","0","0","0","0","0","80","80","0","15","0","no","03/17/19 22:13:12","A simple template for the mouse-tracking paradigm","yes","Experiment-TF.osexp","C:\Users\Kristen\Documents\opPreviewExperiment-master\procedure","no","mono","no","24","no","black","no","yes","1050","legacy","64","15","C:/Users/Kristen/Documents/opPreviewExperiment-master/procedure/subject-8.csv","legacy","Kafkaesque Koffka","3.2.6","add","0","l","NA","NA","a","a","1700","NA","NA","13008","1700","2","1861","legacy","large","1024","2","48000","-16","experiment","6_8_add_FNI.jpg","8","even","legacy","245268","NA","60073","NA","NA","2836","NA","2854","58373","245268","248274","15863","56394","2838","mousetracking operator preview effect","0","0","0","no","false","no","1680"
"neutral","undefined","1","undefined","undefined","white","no","legacy","legacy","legacy","0","relative","undefined","undefined","65","NA","0","0","0","0","0","0","0","81","81","0","15","0","no","03/17/19 22:13:12","A simple template for the mouse-tracking paradigm","yes","Experiment-TF.osexp","C:\Users\Kristen\Documents\opPreviewExperiment-master\procedure","no","mono","no","24","no","black","no","yes","1050","legacy","65","15","C:/Users/Kristen/Documents/opPreviewExperiment-master/procedure/subject-8.csv","legacy","Kafkaesque Koffka","3.2.6","add","0","a","NA","NA","a","a","1700","NA","NA","13008","1700","2","863","legacy","large","1024","2","48000","-16","experiment","8_4_add_true.jpg","8","even","legacy","248295","NA","60073","NA","NA","2836","NA","2854","58373","248295","250134","15863","56394","2838","mousetracking operator preview effect","0","0","0","no","true","no","1680"
"negative","undefined","1","undefined","undefined","white","no","legacy","legacy","legacy","0","relative","undefined","undefined","66","NA","0","0","0","0","0","0","0","82","82","0","15","0","no","03/17/19 22:13:12","A simple template for the mouse-tracking paradigm","yes","Experiment-TF.osexp","C:\Users\Kristen\Documents\opPreviewExperiment-master\procedure","no","mono","no","24","no","black","no","yes","1050","legacy","66","15","C:/Users/Kristen/Documents/opPreviewExperiment-master/procedure/subject-8.csv","legacy","Kafkaesque Koffka","3.2.6","add","0","l","NA","NA","a","a","1700","NA","NA","13008","1700","2","1381","legacy","large","1024","2","48000","-16","experiment","4_9_add_FNI.jpg","8","even","legacy","250155","NA","60073","NA","NA","2836","NA","2854","58373","250155","252679","15863","56394","2838","mousetracking operator preview effect","0","0","0","no","false","no","1680"
"neutral","undefined","1","undefined","undefined","white","no","legacy","legacy","legacy","0","relative","undefined","undefined","67","NA","0","0","0","0","0","0","0","83","83","0","15","0","no","03/17/19 22:13:12","A simple template for the mouse-tracking paradigm","yes","Experiment-TF.osexp","C:\Users\Kristen\Documents\opPreviewExperiment-master\procedure","no","mono","no","24","no","black","no","yes","1050","legacy","67","15","C:/Users/Kristen/Documents/opPreviewExperiment-master/procedure/subject-8.csv","legacy","Kafkaesque Koffka","3.2.6","add","0","l","NA","NA","a","a","1700","NA","NA","13008","1700","2","1038","legacy","large","1024","2","48000","-16","experiment","8_4_add_FNI.jpg","8","even","legacy","252708","NA","60073","NA","NA","2836","NA","2854","58373","252709","254722","15863","56394","2838","mousetracking operator preview effect","0","0","0","no","false","no","1680"
"neutral","undefined","0","undefined","undefined","white","no","legacy","legacy","legacy","0","relative","undefined","undefined","68","NA","0","0","0","0","0","0","0","84","84","0","15","0","no","03/17/19 22:13:12","A simple template for the mouse-tracking paradigm","yes","Experiment-TF.osexp","C:\Users\Kristen\Documents\opPreviewExperiment-master\procedure","no","mono","no","24","no","black","no","yes","1050","legacy","68","15","C:/Users/Kristen/Documents/opPreviewExperiment-master/procedure/subject-8.csv","legacy","Kafkaesque Koffka","3.2.6","mult","0","a","NA","NA","a","a","1700","NA","NA","13008","1700","2","926","legacy","large","1024","2","48000","-16","experiment","8_4_mult_FI.jpg","8","even","legacy","254743","NA","60073","NA","NA","2836","NA","2854","58373","254743","257679","15863","56394","2838","mousetracking operator preview effect","0","0","0","no","false","no","1680"
"negative","undefined","1","undefined","undefined","white","no","legacy","legacy","legacy","0","relative","undefined","undefined","69","NA","0","0","0","0","0","0","0","85","85","0","15","0","no","03/17/19 22:13:12","A simple template for the mouse-tracking paradigm","yes","Experiment-TF.osexp","C:\Users\Kristen\Documents\opPreviewExperiment-master\procedure","no","mono","no","24","no","black","no","yes","1050","legacy","69","15","C:/Users/Kristen/Documents/opPreviewExperiment-master/procedure/subject-8.csv","legacy","Kafkaesque Koffka","3.2.6","add","0","l","NA","NA","a","a","1700","NA","NA","13008","1700","2","2393","legacy","small","1024","2","48000","-16","experiment","2_7_add_FI.jpg","8","even","legacy","257715","NA","60073","NA","NA","2836","NA","2854","58373","257716","261261","15863","56394","2838","mousetracking operator preview effect","0","0","0","no","false","no","1680"
"negative","undefined","1","undefined","undefined","white","no","legacy","legacy","legacy","0","relative","undefined","undefined","70","NA","0","0","0","0","0","0","0","86","86","0","15","0","no","03/17/19 22:13:12","A simple template for the mouse-tracking paradigm","yes","Experiment-TF.osexp","C:\Users\Kristen\Documents\opPreviewExperiment-master\procedure","no","mono","no","24","no","black","no","yes","1050","legacy","70","15","C:/Users/Kristen/Documents/opPreviewExperiment-master/procedure/subject-8.csv","legacy","Kafkaesque Koffka","3.2.6","mult","0","l","NA","NA","a","a","1700","NA","NA","13008","1700","2","1190","legacy","large","1024","2","48000","-16","experiment","6_8_mult_FI.jpg","8","even","legacy","261285","NA","60073","NA","NA","2836","NA","2854","58373","261285","263622","15863","56394","2838","mousetracking operator preview effect","0","0","0","no","false","no","1680"
"neutral","undefined","1","undefined","undefined","white","no","legacy","legacy","legacy","0","relative","undefined","undefined","71","NA","0","0","0","0","0","0","0","87","87","0","15","0","no","03/17/19 22:13:12","A simple template for the mouse-tracking paradigm","yes","Experiment-TF.osexp","C:\Users\Kristen\Documents\opPreviewExperiment-master\procedure","no","mono","no","24","no","black","no","yes","1050","legacy","71","15","C:/Users/Kristen/Documents/opPreviewExperiment-master/procedure/subject-8.csv","legacy","Kafkaesque Koffka","3.2.6","add","0","l","NA","NA","a","a","1700","NA","NA","13008","1700","2","1878","legacy","small","1024","2","48000","-16","experiment","3_6_add_FNI.jpg","8","even","legacy","263645","NA","60073","NA","NA","2836","NA","2854","58373","263645","266495","15863","56394","2838","mousetracking operator preview effect","0","0","0","no","false","no","1680"
"neutral","undefined","1","undefined","undefined","white","no","legacy","legacy","legacy","0","relative","undefined","undefined","72","NA","0","0","0","0","0","0","0","88","88","0","15","0","no","03/17/19 22:13:12","A simple template for the mouse-tracking paradigm","yes","Experiment-TF.osexp","C:\Users\Kristen\Documents\opPreviewExperiment-master\procedure","no","mono","no","24","no","black","no","yes","1050","legacy","72","15","C:/Users/Kristen/Documents/opPreviewExperiment-master/procedure/subject-8.csv","legacy","Kafkaesque Koffka","3.2.6","mult","0","l","NA","NA","a","a","1700","NA","NA","13008","1700","2","3497","legacy","large","1024","2","48000","-16","experiment","4_9_mult_FNI.jpg","8","even","legacy","266524","NA","60073","NA","NA","2836","NA","2854","58373","266524","270997","15863","56394","2838","mousetracking operator preview effect","0","0","0","no","false","no","1680"
"neutral","undefined","1","undefined","undefined","white","no","legacy","legacy","legacy","0","relative","undefined","undefined","73","NA","0","0","0","0","0","0","0","89","89","0","15","0","no","03/17/19 22:13:12","A simple template for the mouse-tracking paradigm","yes","Experiment-TF.osexp","C:\Users\Kristen\Documents\opPreviewExperiment-master\procedure","no","mono","no","24","no","black","no","yes","1050","legacy","73","15","C:/Users/Kristen/Documents/opPreviewExperiment-master/procedure/subject-8.csv","legacy","Kafkaesque Koffka","3.2.6","add","0","a","NA","NA","a","a","1700","NA","NA","13008","1700","2","781","legacy","large","1024","2","48000","-16","experiment","8_4_add_true.jpg","8","even","legacy","271018","NA","60073","NA","NA","2836","NA","2854","58373","271018","272777","15863","56394","2838","mousetracking operator preview effect","0","0","0","no","true","no","1680"
"negative","undefined","1","undefined","undefined","white","no","legacy","legacy","legacy","0","relative","undefined","undefined","74","NA","0","0","0","0","0","0","0","90","90","0","15","0","no","03/17/19 22:13:12","A simple template for the mouse-tracking paradigm","yes","Experiment-TF.osexp","C:\Users\Kristen\Documents\opPreviewExperiment-master\procedure","no","mono","no","24","no","black","no","yes","1050","legacy","74","15","C:/Users/Kristen/Documents/opPreviewExperiment-master/procedure/subject-8.csv","legacy","Kafkaesque Koffka","3.2.6","add","0","a","NA","NA","a","a","1700","NA","NA","13008","1700","2","1341","legacy","large","1024","2","48000","-16","experiment","6_8_add_true.jpg","8","even","legacy","272790","NA","60073","NA","NA","2836","NA","2854","58373","272790","275257","15863","56394","2838","mousetracking operator preview effect","0","0","0","no","true","no","1680"
"neutral","undefined","1","undefined","undefined","white","no","legacy","legacy","legacy","0","relative","undefined","undefined","75","NA","0","0","0","0","0","0","0","91","91","0","15","0","no","03/17/19 22:13:12","A simple template for the mouse-tracking paradigm","yes","Experiment-TF.osexp","C:\Users\Kristen\Documents\opPreviewExperiment-master\procedure","no","mono","no","24","no","black","no","yes","1050","legacy","75","15","C:/Users/Kristen/Documents/opPreviewExperiment-master/procedure/subject-8.csv","legacy","Kafkaesque Koffka","3.2.6","add","0","l","NA","NA","a","a","1700","NA","NA","13008","1700","2","924","legacy","small","1024","2","48000","-16","experiment","5_3_add_FI.jpg","8","even","legacy","275288","NA","60073","NA","NA","2836","NA","2854","58373","275288","277187","15863","56394","2838","mousetracking operator preview effect","0","0","0","no","false","no","1680"
"neutral","undefined","1","undefined","undefined","white","no","legacy","legacy","legacy","0","relative","undefined","undefined","76","NA","0","0","0","0","0","0","0","92","92","0","15","0","no","03/17/19 22:13:12","A simple template for the mouse-tracking paradigm","yes","Experiment-TF.osexp","C:\Users\Kristen\Documents\opPreviewExperiment-master\procedure","no","mono","no","24","no","black","no","yes","1050","legacy","76","15","C:/Users/Kristen/Documents/opPreviewExperiment-master/procedure/subject-8.csv","legacy","Kafkaesque Koffka","3.2.6","add","0","a","NA","NA","a","a","1700","NA","NA","13008","1700","2","960","legacy","small","1024","2","48000","-16","experiment","3_6_add_true.jpg","8","even","legacy","277212","NA","60073","NA","NA","2836","NA","2854","58373","277212","279148","15863","56394","2838","mousetracking operator preview effect","0","0","0","no","true","no","1680"
"negative","undefined","1","undefined","undefined","white","no","legacy","legacy","legacy","0","relative","undefined","undefined","77","NA","0","0","0","0","0","0","0","93","93","0","15","0","no","03/17/19 22:13:12","A simple template for the mouse-tracking paradigm","yes","Experiment-TF.osexp","C:\Users\Kristen\Documents\opPreviewExperiment-master\procedure","no","mono","no","24","no","black","no","yes","1050","legacy","77","15","C:/Users/Kristen/Documents/opPreviewExperiment-master/procedure/subject-8.csv","legacy","Kafkaesque Koffka","3.2.6","add","0","a","NA","NA","a","a","1700","NA","NA","13008","1700","2","674","legacy","small","1024","2","48000","-16","experiment","5_3_add_true.jpg","8","even","legacy","279172","NA","60073","NA","NA","2836","NA","2854","58373","279172","280962","15863","56394","2838","mousetracking operator preview effect","0","0","0","no","true","no","1680"
"neutral","undefined","1","undefined","undefined","white","no","legacy","legacy","legacy","0","relative","undefined","undefined","78","NA","0","0","0","0","0","0","0","94","94","0","15","0","no","03/17/19 22:13:12","A simple template for the mouse-tracking paradigm","yes","Experiment-TF.osexp","C:\Users\Kristen\Documents\opPreviewExperiment-master\procedure","no","mono","no","24","no","black","no","yes","1050","legacy","78","15","C:/Users/Kristen/Documents/opPreviewExperiment-master/procedure/subject-8.csv","legacy","Kafkaesque Koffka","3.2.6","mult","0","l","NA","NA","a","a","1700","NA","NA","13008","1700","2","1283","legacy","large","1024","2","48000","-16","experiment","9_7_mult_FI.jpg","8","even","legacy","280984","NA","60073","NA","NA","2836","NA","2854","58373","280984","283222","15863","56394","2838","mousetracking operator preview effect","0","0","0","no","false","no","1680"
"negative","undefined","1","undefined","undefined","white","no","legacy","legacy","legacy","0","relative","undefined","undefined","79","NA","0","0","0","0","0","0","0","95","95","0","15","0","no","03/17/19 22:13:12","A simple template for the mouse-tracking paradigm","yes","Experiment-TF.osexp","C:\Users\Kristen\Documents\opPreviewExperiment-master\procedure","no","mono","no","24","no","black","no","yes","1050","legacy","79","15","C:/Users/Kristen/Documents/opPreviewExperiment-master/procedure/subject-8.csv","legacy","Kafkaesque Koffka","3.2.6","add","0","l","NA","NA","a","a","1700","NA","NA","13008","1700","2","830","legacy","small","1024","2","48000","-16","experiment","8_2_add_FNI.jpg","8","even","legacy","283243","NA","60073","NA","NA","2836","NA","2854","58373","283243","285238","15863","56394","2838","mousetracking operator preview effect","0","0","0","no","false","no","1680"
"neutral","undefined","1","undefined","undefined","white","no","legacy","legacy","legacy","0","relative","undefined","undefined","80","NA","0","0","0","0","0","0","0","96","96","0","15","0","no","03/17/19 22:13:12","A simple template for the mouse-tracking paradigm","yes","Experiment-TF.osexp","C:\Users\Kristen\Documents\opPreviewExperiment-master\procedure","no","mono","no","24","no","black","no","yes","1050","legacy","80","15","C:/Users/Kristen/Documents/opPreviewExperiment-master/procedure/subject-8.csv","legacy","Kafkaesque Koffka","3.2.6","add","0","l","NA","NA","a","a","1700","NA","NA","13008","1700","2","878","legacy","small","1024","2","48000","-16","experiment","5_3_add_FNI.jpg","8","even","legacy","285264","NA","60073","NA","NA","2836","NA","2854","58373","285264","287101","15863","56394","2838","mousetracking operator preview effect","0","0","0","no","false","no","1680"
"neutral","undefined","1","undefined","undefined","white","no","legacy","legacy","legacy","0","relative","undefined","undefined","81","NA","0","0","0","0","0","0","0","97","97","0","15","0","no","03/17/19 22:13:12","A simple template for the mouse-tracking paradigm","yes","Experiment-TF.osexp","C:\Users\Kristen\Documents\opPreviewExperiment-master\procedure","no","mono","no","24","no","black","no","yes","1050","legacy","81","15","C:/Users/Kristen/Documents/opPreviewExperiment-master/procedure/subject-8.csv","legacy","Kafkaesque Koffka","3.2.6","add","0","a","NA","NA","a","a","1700","NA","NA","13008","1700","2","1215","legacy","large","1024","2","48000","-16","experiment","6_8_add_true.jpg","8","even","legacy","287118","NA","60073","NA","NA","2836","NA","2854","58373","287119","289292","15863","56394","2838","mousetracking operator preview effect","0","0","0","no","true","no","1680"
"negative","undefined","1","undefined","undefined","white","no","legacy","legacy","legacy","0","relative","undefined","undefined","82","NA","0","0","0","0","0","0","0","98","98","0","15","0","no","03/17/19 22:13:12","A simple template for the mouse-tracking paradigm","yes","Experiment-TF.osexp","C:\Users\Kristen\Documents\opPreviewExperiment-master\procedure","no","mono","no","24","no","black","no","yes","1050","legacy","82","15","C:/Users/Kristen/Documents/opPreviewExperiment-master/procedure/subject-8.csv","legacy","Kafkaesque Koffka","3.2.6","mult","0","l","NA","NA","a","a","1700","NA","NA","13008","1700","2","1648","legacy","large","1024","2","48000","-16","experiment","8_4_mult_FNI.jpg","8","even","legacy","289313","NA","60073","NA","NA","2836","NA","2854","58373","289314","292127","15863","56394","2838","mousetracking operator preview effect","0","0","0","no","false","no","1680"
"negative","undefined","0","undefined","undefined","white","no","legacy","legacy","legacy","0","relative","undefined","undefined","83","NA","0","0","0","0","0","0","0","99","99","0","15","0","no","03/17/19 22:13:12","A simple template for the mouse-tracking paradigm","yes","Experiment-TF.osexp","C:\Users\Kristen\Documents\opPreviewExperiment-master\procedure","no","mono","no","24","no","black","no","yes","1050","legacy","83","15","C:/Users/Kristen/Documents/opPreviewExperiment-master/procedure/subject-8.csv","legacy","Kafkaesque Koffka","3.2.6","mult","0","l","NA","NA","a","a","1700","NA","NA","13008","1700","2","7040","legacy","small","1024","2","48000","-16","experiment","3_6_mult_true.jpg","8","even","legacy","292149","NA","60073","NA","NA","2836","NA","2854","58373","292149","301355","15863","56394","2838","mousetracking operator preview effect","0","0","0","no","true","no","1680"
"negative","undefined","1","undefined","undefined","white","no","legacy","legacy","legacy","0","relative","undefined","undefined","84","NA","0","0","0","0","0","0","0","100","100","0","15","0","no","03/17/19 22:13:12","A simple template for the mouse-tracking paradigm","yes","Experiment-TF.osexp","C:\Users\Kristen\Documents\opPreviewExperiment-master\procedure","no","mono","no","24","no","black","no","yes","1050","legacy","84","15","C:/Users/Kristen/Documents/opPreviewExperiment-master/procedure/subject-8.csv","legacy","Kafkaesque Koffka","3.2.6","mult","0","l","NA","NA","a","a","1700","NA","NA","13008","1700","2","3349","legacy","large","1024","2","48000","-16","experiment","9_7_mult_FNI.jpg","8","even","legacy","301375","NA","60073","NA","NA","2836","NA","2854","58373","301376","305832","15863","56394","2838","mousetracking operator preview effect","0","0","0","no","false","no","1680"
"negative","undefined","0","undefined","undefined","white","no","legacy","legacy","legacy","0","relative","undefined","undefined","85","NA","0","0","0","0","0","0","0","101","101","0","15","0","no","03/17/19 22:13:12","A simple template for the mouse-tracking paradigm","yes","Experiment-TF.osexp","C:\Users\Kristen\Documents\opPreviewExperiment-master\procedure","no","mono","no","24","no","black","no","yes","1050","legacy","85","15","C:/Users/Kristen/Documents/opPreviewExperiment-master/procedure/subject-8.csv","legacy","Kafkaesque Koffka","3.2.6","add","0","a","NA","NA","a","a","1700","NA","NA","13008","1700","2","660","legacy","large","1024","2","48000","-16","experiment","9_7_add_FI.jpg","8","even","legacy","305859","NA","60073","NA","NA","2836","NA","2854","58373","305859","308645","15863","56394","2838","mousetracking operator preview effect","0","0","0","no","false","no","1680"
"negative","undefined","1","undefined","undefined","white","no","legacy","legacy","legacy","0","relative","undefined","undefined","86","NA","0","0","0","0","0","0","0","102","102","0","15","0","no","03/17/19 22:13:12","A simple template for the mouse-tracking paradigm","yes","Experiment-TF.osexp","C:\Users\Kristen\Documents\opPreviewExperiment-master\procedure","no","mono","no","24","no","black","no","yes","1050","legacy","86","15","C:/Users/Kristen/Documents/opPreviewExperiment-master/procedure/subject-8.csv","legacy","Kafkaesque Koffka","3.2.6","add","0","l","NA","NA","a","a","1700","NA","NA","13008","1700","2","1770","legacy","small","1024","2","48000","-16","experiment","5_3_add_FNI.jpg","8","even","legacy","308664","NA","60073","NA","NA","2836","NA","2854","58373","308665","311561","15863","56394","2838","mousetracking operator preview effect","0","0","0","no","false","no","1680"
"negative","undefined","1","undefined","undefined","white","no","legacy","legacy","legacy","0","relative","undefined","undefined","87","NA","0","0","0","0","0","0","0","103","103","0","15","0","no","03/17/19 22:13:12","A simple template for the mouse-tracking paradigm","yes","Experiment-TF.osexp","C:\Users\Kristen\Documents\opPreviewExperiment-master\procedure","no","mono","no","24","no","black","no","yes","1050","legacy","87","15","C:/Users/Kristen/Documents/opPreviewExperiment-master/procedure/subject-8.csv","legacy","Kafkaesque Koffka","3.2.6","add","0","a","NA","NA","a","a","1700","NA","NA","13008","1700","2","2403","legacy","large","1024","2","48000","-16","experiment","9_7_add_true.jpg","8","even","legacy","311587","NA","60073","NA","NA","2836","NA","2854","58373","311587","315141","15863","56394","2838","mousetracking operator preview effect","0","0","0","no","true","no","1680"
"neutral","undefined","1","undefined","undefined","white","no","legacy","legacy","legacy","0","relative","undefined","undefined","88","NA","0","0","0","0","0","0","0","104","104","0","15","0","no","03/17/19 22:13:12","A simple template for the mouse-tracking paradigm","yes","Experiment-TF.osexp","C:\Users\Kristen\Documents\opPreviewExperiment-master\procedure","no","mono","no","24","no","black","no","yes","1050","legacy","88","15","C:/Users/Kristen/Documents/opPreviewExperiment-master/procedure/subject-8.csv","legacy","Kafkaesque Koffka","3.2.6","add","0","a","NA","NA","a","a","1700","NA","NA","13008","1700","2","1070","legacy","small","1024","2","48000","-16","experiment","3_6_add_true.jpg","8","even","legacy","315156","NA","60073","NA","NA","2836","NA","2854","58373","315156","317201","15863","56394","2838","mousetracking operator preview effect","0","0","0","no","true","no","1680"
"neutral","undefined","1","undefined","undefined","white","no","legacy","legacy","legacy","0","relative","undefined","undefined","89","NA","0","0","0","0","0","0","0","105","105","0","15","0","no","03/17/19 22:13:12","A simple template for the mouse-tracking paradigm","yes","Experiment-TF.osexp","C:\Users\Kristen\Documents\opPreviewExperiment-master\procedure","no","mono","no","24","no","black","no","yes","1050","legacy","89","15","C:/Users/Kristen/Documents/opPreviewExperiment-master/procedure/subject-8.csv","legacy","Kafkaesque Koffka","3.2.6","mult","0","a","NA","NA","a","a","1700","NA","NA","13008","1700","2","1232","legacy","small","1024","2","48000","-16","experiment","8_2_mult_true.jpg","8","even","legacy","317229","NA","60073","NA","NA","2836","NA","2854","58373","317229","319438","15863","56394","2838","mousetracking operator preview effect","0","0","0","no","true","no","1680"
"neutral","undefined","1","undefined","undefined","white","no","legacy","legacy","legacy","0","relative","undefined","undefined","90","NA","0","0","0","0","0","0","0","106","106","0","15","0","no","03/17/19 22:13:12","A simple template for the mouse-tracking paradigm","yes","Experiment-TF.osexp","C:\Users\Kristen\Documents\opPreviewExperiment-master\procedure","no","mono","no","24","no","black","no","yes","1050","legacy","90","15","C:/Users/Kristen/Documents/opPreviewExperiment-master/procedure/subject-8.csv","legacy","Kafkaesque Koffka","3.2.6","mult","0","a","NA","NA","a","a","1700","NA","NA","13008","1700","2","971","legacy","large","1024","2","48000","-16","experiment","9_7_mult_true.jpg","8","even","legacy","319459","NA","60073","NA","NA","2836","NA","2854","58373","319459","321379","15863","56394","2838","mousetracking operator preview effect","0","0","0","no","true","no","1680"
"negative","undefined","1","undefined","undefined","white","no","legacy","legacy","legacy","0","relative","undefined","undefined","91","NA","0","0","0","0","0","0","0","107","107","0","15","0","no","03/17/19 22:13:12","A simple template for the mouse-tracking paradigm","yes","Experiment-TF.osexp","C:\Users\Kristen\Documents\opPreviewExperiment-master\procedure","no","mono","no","24","no","black","no","yes","1050","legacy","91","15","C:/Users/Kristen/Documents/opPreviewExperiment-master/procedure/subject-8.csv","legacy","Kafkaesque Koffka","3.2.6","mult","0","l","NA","NA","a","a","1700","NA","NA","13008","1700","2","1102","legacy","large","1024","2","48000","-16","experiment","8_4_mult_FI.jpg","8","even","legacy","321399","NA","60073","NA","NA","2836","NA","2854","58373","321399","323654","15863","56394","2838","mousetracking operator preview effect","0","0","0","no","false","no","1680"
"negative","undefined","1","undefined","undefined","white","no","legacy","legacy","legacy","0","relative","undefined","undefined","92","NA","0","0","0","0","0","0","0","108","108","0","15","0","no","03/17/19 22:13:12","A simple template for the mouse-tracking paradigm","yes","Experiment-TF.osexp","C:\Users\Kristen\Documents\opPreviewExperiment-master\procedure","no","mono","no","24","no","black","no","yes","1050","legacy","92","15","C:/Users/Kristen/Documents/opPreviewExperiment-master/procedure/subject-8.csv","legacy","Kafkaesque Koffka","3.2.6","mult","0","l","NA","NA","a","a","1700","NA","NA","13008","1700","2","1985","legacy","small","1024","2","48000","-16","experiment","8_2_mult_FNI.jpg","8","even","legacy","323682","NA","60073","NA","NA","2836","NA","2854","58373","323682","326817","15863","56394","2838","mousetracking operator preview effect","0","0","0","no","false","no","1680"
"neutral","undefined","1","undefined","undefined","white","no","legacy","legacy","legacy","0","relative","undefined","undefined","93","NA","0","0","0","0","0","0","0","109","109","0","15","0","no","03/17/19 22:13:12","A simple template for the mouse-tracking paradigm","yes","Experiment-TF.osexp","C:\Users\Kristen\Documents\opPreviewExperiment-master\procedure","no","mono","no","24","no","black","no","yes","1050","legacy","93","15","C:/Users/Kristen/Documents/opPreviewExperiment-master/procedure/subject-8.csv","legacy","Kafkaesque Koffka","3.2.6","add","0","a","NA","NA","a","a","1700","NA","NA","13008","1700","2","1774","legacy","small","1024","2","48000","-16","experiment","2_7_add_true.jpg","8","even","legacy","326841","NA","60073","NA","NA","2836","NA","2854","58373","326841","329589","15863","56394","2838","mousetracking operator preview effect","0","0","0","no","true","no","1680"
