"SOAcondition","acc","accuracy","average_response_time","avg_rt","background","bidi","canvas_backend","clock_backend","color_backend","compensation","coordinates","correct","correct_instruction1","count_block1_sequence","count_block2_sequence","count_block_1","count_block_2","count_breakScreen","count_experiment","count_finish","count_instruction1","count_instruction2","count_keyboard_script","count_logger","count_practiceBlock","count_practice_sequence","count_setup_script","custom_cursor","datetime","description","disable_garbage_collection","experiment_file","experiment_path","font_bold","font_family","font_italic","font_size","font_underline","foreground","form_clicks","fullscreen","height","keyboard_backend","live_row","live_row_practiceBlock","logfile","mouse_backend","opensesame_codename","opensesame_version","operation","repeat_cycle","response","response_breakScreen","response_finish","response_instruction1","response_instruction2","response_time","response_time_breakScreen","response_time_finish","response_time_instruction1","response_time_instruction2","round_decimals","rt","sampler_backend","size","sound_buf_size","sound_channels","sound_freq","sound_sample_size","start","stimulus","subject_nr","subject_parity","synth_backend","time_block1_sequence","time_block2_sequence","time_block_1","time_block_2","time_breakScreen","time_experiment","time_finish","time_instruction1","time_instruction2","time_keyboard_script","time_logger","time_practiceBlock","time_practice_sequence","time_setup_script","title","total_correct","total_response_time","total_responses","transparent_variables","truth","uniform_coordinates","width"
"neutral","undefined","1","undefined","undefined","white","no","legacy","legacy","legacy","0","relative","undefined","undefined","NA","NA","0","0","0","0","0","0","0","0","0","0","0","0","no","03/08/19 11:21:52","A simple template for the mouse-tracking paradigm","yes","Experiment-FT.osexp","C:\Users\Kristen\Documents\opPreviewExperiment-master\procedure","no","mono","no","24","no","black","no","yes","1050","legacy","0","0","C:/Users/Kristen/Documents/opPreviewExperiment-master/procedure/subject-5.csv","legacy","Kafkaesque Koffka","3.2.6","add","0","l","NA","NA","a","NA","20955","NA","NA","20955","NA","2","6159","legacy","NA","1024","2","48000","-16","experiment","1_4_add_T.jpg","5","odd","legacy","NA","NA","NA","NA","NA","3000","NA","3013","NA","23972","31187","23969","23972","3002","mousetracking operator preview effect","0","0","0","no","true","no","1680"
"neutral","undefined","1","undefined","undefined","white","no","legacy","legacy","legacy","0","relative","undefined","undefined","NA","NA","0","0","0","0","0","0","0","1","1","0","1","0","no","03/08/19 11:21:52","A simple template for the mouse-tracking paradigm","yes","Experiment-FT.osexp","C:\Users\Kristen\Documents\opPreviewExperiment-master\procedure","no","mono","no","24","no","black","no","yes","1050","legacy","1","1","C:/Users/Kristen/Documents/opPreviewExperiment-master/procedure/subject-5.csv","legacy","Kafkaesque Koffka","3.2.6","add","0","a","NA","NA","a","NA","20955","NA","NA","20955","NA","2","1808","legacy","NA","1024","2","48000","-16","experiment","0_3_add_F.jpg","5","odd","legacy","NA","NA","NA","NA","NA","3000","NA","3013","NA","31206","34007","23969","31206","3002","mousetracking operator preview effect","0","0","0","no","false","no","1680"
"neutral","undefined","1","undefined","undefined","white","no","legacy","legacy","legacy","0","relative","undefined","undefined","NA","NA","0","0","0","0","0","0","0","2","2","0","2","0","no","03/08/19 11:21:52","A simple template for the mouse-tracking paradigm","yes","Experiment-FT.osexp","C:\Users\Kristen\Documents\opPreviewExperiment-master\procedure","no","mono","no","24","no","black","no","yes","1050","legacy","2","2","C:/Users/Kristen/Documents/opPreviewExperiment-master/procedure/subject-5.csv","legacy","Kafkaesque Koffka","3.2.6","add","0","a","NA","NA","a","NA","20955","NA","NA","20955","NA","2","1549","legacy","NA","1024","2","48000","-16","experiment","1_4_add_F.jpg","5","odd","legacy","NA","NA","NA","NA","NA","3000","NA","3013","NA","34029","36575","23969","34029","3002","mousetracking operator preview effect","0","0","0","no","false","no","1680"
"negative","undefined","1","undefined","undefined","white","no","legacy","legacy","legacy","0","relative","undefined","undefined","NA","NA","0","0","0","0","0","0","0","3","3","0","3","0","no","03/08/19 11:21:52","A simple template for the mouse-tracking paradigm","yes","Experiment-FT.osexp","C:\Users\Kristen\Documents\opPreviewExperiment-master\procedure","no","mono","no","24","no","black","no","yes","1050","legacy","3","3","C:/Users/Kristen/Documents/opPreviewExperiment-master/procedure/subject-5.csv","legacy","Kafkaesque Koffka","3.2.6","mult","0","a","NA","NA","a","NA","20955","NA","NA","20955","NA","2","2004","legacy","NA","1024","2","48000","-16","experiment","1_4_mult_F.jpg","5","odd","legacy","NA","NA","NA","NA","NA","3000","NA","3013","NA","36599","39785","23969","36599","3002","mousetracking operator preview effect","0","0","0","no","false","no","1680"
"negative","undefined","1","undefined","undefined","white","no","legacy","legacy","legacy","0","relative","undefined","undefined","NA","NA","0","0","0","0","0","0","0","4","4","0","4","0","no","03/08/19 11:21:52","A simple template for the mouse-tracking paradigm","yes","Experiment-FT.osexp","C:\Users\Kristen\Documents\opPreviewExperiment-master\procedure","no","mono","no","24","no","black","no","yes","1050","legacy","4","4","C:/Users/Kristen/Documents/opPreviewExperiment-master/procedure/subject-5.csv","legacy","Kafkaesque Koffka","3.2.6","add","0","l","NA","NA","a","NA","20955","NA","NA","20955","NA","2","1360","legacy","NA","1024","2","48000","-16","experiment","1_4_add_T.jpg","5","odd","legacy","NA","NA","NA","NA","NA","3000","NA","3013","NA","39806","42333","23969","39806","3002","mousetracking operator preview effect","0","0","0","no","true","no","1680"
"negative","undefined","1","undefined","undefined","white","no","legacy","legacy","legacy","0","relative","undefined","undefined","NA","NA","0","0","0","0","0","0","0","5","5","0","5","0","no","03/08/19 11:21:52","A simple template for the mouse-tracking paradigm","yes","Experiment-FT.osexp","C:\Users\Kristen\Documents\opPreviewExperiment-master\procedure","no","mono","no","24","no","black","no","yes","1050","legacy","5","5","C:/Users/Kristen/Documents/opPreviewExperiment-master/procedure/subject-5.csv","legacy","Kafkaesque Koffka","3.2.6","add","0","a","NA","NA","a","NA","20955","NA","NA","20955","NA","2","1786","legacy","NA","1024","2","48000","-16","experiment","1_4_add_F.jpg","5","odd","legacy","NA","NA","NA","NA","NA","3000","NA","3013","NA","42353","45290","23969","42353","3002","mousetracking operator preview effect","0","0","0","no","false","no","1680"
"neutral","undefined","1","undefined","undefined","white","no","legacy","legacy","legacy","0","relative","undefined","undefined","NA","NA","0","0","0","0","0","0","0","6","6","0","6","0","no","03/08/19 11:21:52","A simple template for the mouse-tracking paradigm","yes","Experiment-FT.osexp","C:\Users\Kristen\Documents\opPreviewExperiment-master\procedure","no","mono","no","24","no","black","no","yes","1050","legacy","6","6","C:/Users/Kristen/Documents/opPreviewExperiment-master/procedure/subject-5.csv","legacy","Kafkaesque Koffka","3.2.6","mult","0","a","NA","NA","a","NA","20955","NA","NA","20955","NA","2","1581","legacy","NA","1024","2","48000","-16","experiment","1_4_mult_F.jpg","5","odd","legacy","NA","NA","NA","NA","NA","3000","NA","3013","NA","45320","47867","23969","45320","3002","mousetracking operator preview effect","0","0","0","no","false","no","1680"
"negative","undefined","1","undefined","undefined","white","no","legacy","legacy","legacy","0","relative","undefined","undefined","NA","NA","0","0","0","0","0","0","0","7","7","0","7","0","no","03/08/19 11:21:52","A simple template for the mouse-tracking paradigm","yes","Experiment-FT.osexp","C:\Users\Kristen\Documents\opPreviewExperiment-master\procedure","no","mono","no","24","no","black","no","yes","1050","legacy","7","7","C:/Users/Kristen/Documents/opPreviewExperiment-master/procedure/subject-5.csv","legacy","Kafkaesque Koffka","3.2.6","mult","0","l","NA","NA","a","NA","20955","NA","NA","20955","NA","2","1519","legacy","NA","1024","2","48000","-16","experiment","1_4_mult_T.jpg","5","odd","legacy","NA","NA","NA","NA","NA","3000","NA","3013","NA","47888","50571","23969","47888","3002","mousetracking operator preview effect","0","0","0","no","true","no","1680"
"negative","undefined","1","undefined","undefined","white","no","legacy","legacy","legacy","0","relative","undefined","undefined","NA","NA","0","0","0","0","0","0","0","8","8","0","8","0","no","03/08/19 11:21:52","A simple template for the mouse-tracking paradigm","yes","Experiment-FT.osexp","C:\Users\Kristen\Documents\opPreviewExperiment-master\procedure","no","mono","no","24","no","black","no","yes","1050","legacy","8","8","C:/Users/Kristen/Documents/opPreviewExperiment-master/procedure/subject-5.csv","legacy","Kafkaesque Koffka","3.2.6","mult","0","l","NA","NA","a","NA","20955","NA","NA","20955","NA","2","1471","legacy","NA","1024","2","48000","-16","experiment","0_3_mult_T.jpg","5","odd","legacy","NA","NA","NA","NA","NA","3000","NA","3013","NA","50594","53223","23969","50594","3002","mousetracking operator preview effect","0","0","0","no","true","no","1680"
"neutral","undefined","0","undefined","undefined","white","no","legacy","legacy","legacy","0","relative","undefined","undefined","NA","NA","0","0","0","0","0","0","0","9","9","0","9","0","no","03/08/19 11:21:52","A simple template for the mouse-tracking paradigm","yes","Experiment-FT.osexp","C:\Users\Kristen\Documents\opPreviewExperiment-master\procedure","no","mono","no","24","no","black","no","yes","1050","legacy","9","9","C:/Users/Kristen/Documents/opPreviewExperiment-master/procedure/subject-5.csv","legacy","Kafkaesque Koffka","3.2.6","mult","0","l","NA","NA","a","NA","20955","NA","NA","20955","NA","2","2806","legacy","NA","1024","2","48000","-16","experiment","0_3_mult_F.jpg","5","odd","legacy","NA","NA","NA","NA","NA","3000","NA","3013","NA","53245","58063","23969","53245","3002","mousetracking operator preview effect","0","0","0","no","false","no","1680"
"neutral","undefined","0","undefined","undefined","white","no","legacy","legacy","legacy","0","relative","undefined","undefined","NA","NA","0","0","0","0","0","0","0","10","10","0","10","0","no","03/08/19 11:21:52","A simple template for the mouse-tracking paradigm","yes","Experiment-FT.osexp","C:\Users\Kristen\Documents\opPreviewExperiment-master\procedure","no","mono","no","24","no","black","no","yes","1050","legacy","10","10","C:/Users/Kristen/Documents/opPreviewExperiment-master/procedure/subject-5.csv","legacy","Kafkaesque Koffka","3.2.6","mult","0","a","NA","NA","a","NA","20955","NA","NA","20955","NA","2","1506","legacy","NA","1024","2","48000","-16","experiment","1_4_mult_T.jpg","5","odd","legacy","NA","NA","NA","NA","NA","3000","NA","3013","NA","58089","61584","23969","58089","3002","mousetracking operator preview effect","0","0","0","no","true","no","1680"
"negative","undefined","1","undefined","undefined","white","no","legacy","legacy","legacy","0","relative","undefined","undefined","NA","NA","0","0","0","0","0","0","0","11","11","0","11","0","no","03/08/19 11:21:52","A simple template for the mouse-tracking paradigm","yes","Experiment-FT.osexp","C:\Users\Kristen\Documents\opPreviewExperiment-master\procedure","no","mono","no","24","no","black","no","yes","1050","legacy","11","11","C:/Users/Kristen/Documents/opPreviewExperiment-master/procedure/subject-5.csv","legacy","Kafkaesque Koffka","3.2.6","add","0","a","NA","NA","a","NA","20955","NA","NA","20955","NA","2","6799","legacy","NA","1024","2","48000","-16","experiment","0_3_add_F.jpg","5","odd","legacy","NA","NA","NA","NA","NA","3000","NA","3013","NA","61617","69577","23969","61616","3002","mousetracking operator preview effect","0","0","0","no","false","no","1680"
"neutral","undefined","1","undefined","undefined","white","no","legacy","legacy","legacy","0","relative","undefined","undefined","NA","NA","0","0","0","0","0","0","0","12","12","0","12","0","no","03/08/19 11:21:52","A simple template for the mouse-tracking paradigm","yes","Experiment-FT.osexp","C:\Users\Kristen\Documents\opPreviewExperiment-master\procedure","no","mono","no","24","no","black","no","yes","1050","legacy","12","12","C:/Users/Kristen/Documents/opPreviewExperiment-master/procedure/subject-5.csv","legacy","Kafkaesque Koffka","3.2.6","add","0","l","NA","NA","a","NA","20955","NA","NA","20955","NA","2","1314","legacy","NA","1024","2","48000","-16","experiment","0_3_add_T.jpg","5","odd","legacy","NA","NA","NA","NA","NA","3000","NA","3013","NA","69605","71910","23969","69605","3002","mousetracking operator preview effect","0","0","0","no","true","no","1680"
"negative","undefined","1","undefined","undefined","white","no","legacy","legacy","legacy","0","relative","undefined","undefined","NA","NA","0","0","0","0","0","0","0","13","13","0","13","0","no","03/08/19 11:21:52","A simple template for the mouse-tracking paradigm","yes","Experiment-FT.osexp","C:\Users\Kristen\Documents\opPreviewExperiment-master\procedure","no","mono","no","24","no","black","no","yes","1050","legacy","13","13","C:/Users/Kristen/Documents/opPreviewExperiment-master/procedure/subject-5.csv","legacy","Kafkaesque Koffka","3.2.6","add","0","l","NA","NA","a","NA","20955","NA","NA","20955","NA","2","4820","legacy","NA","1024","2","48000","-16","experiment","0_3_add_T.jpg","5","odd","legacy","NA","NA","NA","NA","NA","3000","NA","3013","NA","71930","77892","23969","71930","3002","mousetracking operator preview effect","0","0","0","no","true","no","1680"
"neutral","undefined","1","undefined","undefined","white","no","legacy","legacy","legacy","0","relative","undefined","undefined","NA","NA","0","0","0","0","0","0","0","14","14","0","14","0","no","03/08/19 11:21:52","A simple template for the mouse-tracking paradigm","yes","Experiment-FT.osexp","C:\Users\Kristen\Documents\opPreviewExperiment-master\procedure","no","mono","no","24","no","black","no","yes","1050","legacy","14","14","C:/Users/Kristen/Documents/opPreviewExperiment-master/procedure/subject-5.csv","legacy","Kafkaesque Koffka","3.2.6","mult","0","l","NA","NA","a","NA","20955","NA","NA","20955","NA","2","7687","legacy","NA","1024","2","48000","-16","experiment","0_3_mult_T.jpg","5","odd","legacy","NA","NA","NA","NA","NA","3000","NA","3013","NA","77913","86574","23969","77913","3002","mousetracking operator preview effect","0","0","0","no","true","no","1680"
"negative","undefined","0","undefined","undefined","white","no","legacy","legacy","legacy","0","relative","undefined","undefined","NA","NA","0","0","0","0","0","0","0","15","15","0","15","0","no","03/08/19 11:21:52","A simple template for the mouse-tracking paradigm","yes","Experiment-FT.osexp","C:\Users\Kristen\Documents\opPreviewExperiment-master\procedure","no","mono","no","24","no","black","no","yes","1050","legacy","15","15","C:/Users/Kristen/Documents/opPreviewExperiment-master/procedure/subject-5.csv","legacy","Kafkaesque Koffka","3.2.6","mult","0","l","NA","NA","a","NA","20955","NA","NA","20955","NA","2","2888","legacy","NA","1024","2","48000","-16","experiment","0_3_mult_F.jpg","5","odd","legacy","NA","NA","NA","NA","NA","3000","NA","3013","NA","86597","91621","23969","86597","3002","mousetracking operator preview effect","0","0","0","no","false","no","1680"
"negative","undefined","1","undefined","undefined","white","no","legacy","legacy","legacy","0","relative","undefined","undefined","0","NA","0","0","0","0","0","0","0","16","16","0","15","0","no","03/08/19 11:21:52","A simple template for the mouse-tracking paradigm","yes","Experiment-FT.osexp","C:\Users\Kristen\Documents\opPreviewExperiment-master\procedure","no","mono","no","24","no","black","no","yes","1050","legacy","0","15","C:/Users/Kristen/Documents/opPreviewExperiment-master/procedure/subject-5.csv","legacy","Kafkaesque Koffka","3.2.6","mult","0","a","NA","NA","a","a","7340","NA","NA","20955","7340","2","3153","legacy","large","1024","2","48000","-16","experiment","4_9_mult_FI.jpg","5","odd","legacy","99002","NA","98998","NA","NA","3000","NA","3013","91657","99002","103314","23969","86597","3002","mousetracking operator preview effect","0","0","0","no","false","no","1680"
"neutral","undefined","1","undefined","undefined","white","no","legacy","legacy","legacy","0","relative","undefined","undefined","1","NA","0","0","0","0","0","0","0","17","17","0","15","0","no","03/08/19 11:21:52","A simple template for the mouse-tracking paradigm","yes","Experiment-FT.osexp","C:\Users\Kristen\Documents\opPreviewExperiment-master\procedure","no","mono","no","24","no","black","no","yes","1050","legacy","1","15","C:/Users/Kristen/Documents/opPreviewExperiment-master/procedure/subject-5.csv","legacy","Kafkaesque Koffka","3.2.6","add","0","a","NA","NA","a","a","7340","NA","NA","20955","7340","2","1979","legacy","small","1024","2","48000","-16","experiment","5_3_add_FI.jpg","5","odd","legacy","103342","NA","98998","NA","NA","3000","NA","3013","91657","103342","106317","23969","86597","3002","mousetracking operator preview effect","0","0","0","no","false","no","1680"
"neutral","undefined","1","undefined","undefined","white","no","legacy","legacy","legacy","0","relative","undefined","undefined","2","NA","0","0","0","0","0","0","0","18","18","0","15","0","no","03/08/19 11:21:52","A simple template for the mouse-tracking paradigm","yes","Experiment-FT.osexp","C:\Users\Kristen\Documents\opPreviewExperiment-master\procedure","no","mono","no","24","no","black","no","yes","1050","legacy","2","15","C:/Users/Kristen/Documents/opPreviewExperiment-master/procedure/subject-5.csv","legacy","Kafkaesque Koffka","3.2.6","mult","0","l","NA","NA","a","a","7340","NA","NA","20955","7340","2","1364","legacy","small","1024","2","48000","-16","experiment","5_3_mult_true.jpg","5","odd","legacy","106337","NA","98998","NA","NA","3000","NA","3013","91657","106337","108694","23969","86597","3002","mousetracking operator preview effect","0","0","0","no","true","no","1680"
"neutral","undefined","1","undefined","undefined","white","no","legacy","legacy","legacy","0","relative","undefined","undefined","3","NA","0","0","0","0","0","0","0","19","19","0","15","0","no","03/08/19 11:21:52","A simple template for the mouse-tracking paradigm","yes","Experiment-FT.osexp","C:\Users\Kristen\Documents\opPreviewExperiment-master\procedure","no","mono","no","24","no","black","no","yes","1050","legacy","3","15","C:/Users/Kristen/Documents/opPreviewExperiment-master/procedure/subject-5.csv","legacy","Kafkaesque Koffka","3.2.6","mult","0","l","NA","NA","a","a","7340","NA","NA","20955","7340","2","1661","legacy","small","1024","2","48000","-16","experiment","2_7_mult_true.jpg","5","odd","legacy","108714","NA","98998","NA","NA","3000","NA","3013","91657","108714","111372","23969","86597","3002","mousetracking operator preview effect","0","0","0","no","true","no","1680"
"negative","undefined","1","undefined","undefined","white","no","legacy","legacy","legacy","0","relative","undefined","undefined","4","NA","0","0","0","0","0","0","0","20","20","0","15","0","no","03/08/19 11:21:52","A simple template for the mouse-tracking paradigm","yes","Experiment-FT.osexp","C:\Users\Kristen\Documents\opPreviewExperiment-master\procedure","no","mono","no","24","no","black","no","yes","1050","legacy","4","15","C:/Users/Kristen/Documents/opPreviewExperiment-master/procedure/subject-5.csv","legacy","Kafkaesque Koffka","3.2.6","mult","0","l","NA","NA","a","a","7340","NA","NA","20955","7340","2","3759","legacy","large","1024","2","48000","-16","experiment","6_8_mult_true.jpg","5","odd","legacy","111386","NA","98998","NA","NA","3000","NA","3013","91657","111386","116310","23969","86597","3002","mousetracking operator preview effect","0","0","0","no","true","no","1680"
"negative","undefined","1","undefined","undefined","white","no","legacy","legacy","legacy","0","relative","undefined","undefined","5","NA","0","0","0","0","0","0","0","21","21","0","15","0","no","03/08/19 11:21:52","A simple template for the mouse-tracking paradigm","yes","Experiment-FT.osexp","C:\Users\Kristen\Documents\opPreviewExperiment-master\procedure","no","mono","no","24","no","black","no","yes","1050","legacy","5","15","C:/Users/Kristen/Documents/opPreviewExperiment-master/procedure/subject-5.csv","legacy","Kafkaesque Koffka","3.2.6","mult","0","a","NA","NA","a","a","7340","NA","NA","20955","7340","2","2343","legacy","large","1024","2","48000","-16","experiment","8_4_mult_FNI.jpg","5","odd","legacy","116332","NA","98998","NA","NA","3000","NA","3013","91657","116332","119825","23969","86597","3002","mousetracking operator preview effect","0","0","0","no","false","no","1680"
"negative","undefined","1","undefined","undefined","white","no","legacy","legacy","legacy","0","relative","undefined","undefined","6","NA","0","0","0","0","0","0","0","22","22","0","15","0","no","03/08/19 11:21:52","A simple template for the mouse-tracking paradigm","yes","Experiment-FT.osexp","C:\Users\Kristen\Documents\opPreviewExperiment-master\procedure","no","mono","no","24","no","black","no","yes","1050","legacy","6","15","C:/Users/Kristen/Documents/opPreviewExperiment-master/procedure/subject-5.csv","legacy","Kafkaesque Koffka","3.2.6","mult","0","l","NA","NA","a","a","7340","NA","NA","20955","7340","2","2841","legacy","large","1024","2","48000","-16","experiment","4_9_mult_true.jpg","5","odd","legacy","119840","NA","98998","NA","NA","3000","NA","3013","91657","119840","123841","23969","86597","3002","mousetracking operator preview effect","0","0","0","no","true","no","1680"
"neutral","undefined","1","undefined","undefined","white","no","legacy","legacy","legacy","0","relative","undefined","undefined","7","NA","0","0","0","0","0","0","0","23","23","0","15","0","no","03/08/19 11:21:52","A simple template for the mouse-tracking paradigm","yes","Experiment-FT.osexp","C:\Users\Kristen\Documents\opPreviewExperiment-master\procedure","no","mono","no","24","no","black","no","yes","1050","legacy","7","15","C:/Users/Kristen/Documents/opPreviewExperiment-master/procedure/subject-5.csv","legacy","Kafkaesque Koffka","3.2.6","mult","0","l","NA","NA","a","a","7340","NA","NA","20955","7340","2","4262","legacy","large","1024","2","48000","-16","experiment","9_7_mult_true.jpg","5","odd","legacy","123865","NA","98998","NA","NA","3000","NA","3013","91657","123865","129122","23969","86597","3002","mousetracking operator preview effect","0","0","0","no","true","no","1680"
"neutral","undefined","1","undefined","undefined","white","no","legacy","legacy","legacy","0","relative","undefined","undefined","8","NA","0","0","0","0","0","0","0","24","24","0","15","0","no","03/08/19 11:21:52","A simple template for the mouse-tracking paradigm","yes","Experiment-FT.osexp","C:\Users\Kristen\Documents\opPreviewExperiment-master\procedure","no","mono","no","24","no","black","no","yes","1050","legacy","8","15","C:/Users/Kristen/Documents/opPreviewExperiment-master/procedure/subject-5.csv","legacy","Kafkaesque Koffka","3.2.6","mult","0","l","NA","NA","a","a","7340","NA","NA","20955","7340","2","3510","legacy","small","1024","2","48000","-16","experiment","3_6_mult_true.jpg","5","odd","legacy","129149","NA","98998","NA","NA","3000","NA","3013","91657","129149","133651","23969","86597","3002","mousetracking operator preview effect","0","0","0","no","true","no","1680"
"neutral","undefined","1","undefined","undefined","white","no","legacy","legacy","legacy","0","relative","undefined","undefined","9","NA","0","0","0","0","0","0","0","25","25","0","15","0","no","03/08/19 11:21:52","A simple template for the mouse-tracking paradigm","yes","Experiment-FT.osexp","C:\Users\Kristen\Documents\opPreviewExperiment-master\procedure","no","mono","no","24","no","black","no","yes","1050","legacy","9","15","C:/Users/Kristen/Documents/opPreviewExperiment-master/procedure/subject-5.csv","legacy","Kafkaesque Koffka","3.2.6","mult","0","a","NA","NA","a","a","7340","NA","NA","20955","7340","2","1508","legacy","small","1024","2","48000","-16","experiment","2_7_mult_FNI.jpg","5","odd","legacy","133671","NA","98998","NA","NA","3000","NA","3013","91657","133671","136169","23969","86597","3002","mousetracking operator preview effect","0","0","0","no","false","no","1680"
"negative","undefined","1","undefined","undefined","white","no","legacy","legacy","legacy","0","relative","undefined","undefined","10","NA","0","0","0","0","0","0","0","26","26","0","15","0","no","03/08/19 11:21:52","A simple template for the mouse-tracking paradigm","yes","Experiment-FT.osexp","C:\Users\Kristen\Documents\opPreviewExperiment-master\procedure","no","mono","no","24","no","black","no","yes","1050","legacy","10","15","C:/Users/Kristen/Documents/opPreviewExperiment-master/procedure/subject-5.csv","legacy","Kafkaesque Koffka","3.2.6","add","0","l","NA","NA","a","a","7340","NA","NA","20955","7340","2","1884","legacy","large","1024","2","48000","-16","experiment","4_9_add_true.jpg","5","odd","legacy","136183","NA","98998","NA","NA","3000","NA","3013","91657","136183","139231","23969","86597","3002","mousetracking operator preview effect","0","0","0","no","true","no","1680"
"negative","undefined","1","undefined","undefined","white","no","legacy","legacy","legacy","0","relative","undefined","undefined","11","NA","0","0","0","0","0","0","0","27","27","0","15","0","no","03/08/19 11:21:52","A simple template for the mouse-tracking paradigm","yes","Experiment-FT.osexp","C:\Users\Kristen\Documents\opPreviewExperiment-master\procedure","no","mono","no","24","no","black","no","yes","1050","legacy","11","15","C:/Users/Kristen/Documents/opPreviewExperiment-master/procedure/subject-5.csv","legacy","Kafkaesque Koffka","3.2.6","mult","0","l","NA","NA","a","a","7340","NA","NA","20955","7340","2","1972","legacy","small","1024","2","48000","-16","experiment","2_7_mult_true.jpg","5","odd","legacy","139252","NA","98998","NA","NA","3000","NA","3013","91657","139252","142370","23969","86597","3002","mousetracking operator preview effect","0","0","0","no","true","no","1680"
"neutral","undefined","1","undefined","undefined","white","no","legacy","legacy","legacy","0","relative","undefined","undefined","12","NA","0","0","0","0","0","0","0","28","28","0","15","0","no","03/08/19 11:21:52","A simple template for the mouse-tracking paradigm","yes","Experiment-FT.osexp","C:\Users\Kristen\Documents\opPreviewExperiment-master\procedure","no","mono","no","24","no","black","no","yes","1050","legacy","12","15","C:/Users/Kristen/Documents/opPreviewExperiment-master/procedure/subject-5.csv","legacy","Kafkaesque Koffka","3.2.6","add","0","l","NA","NA","a","a","7340","NA","NA","20955","7340","2","2038","legacy","large","1024","2","48000","-16","experiment","6_8_add_true.jpg","5","odd","legacy","142385","NA","98998","NA","NA","3000","NA","3013","91657","142385","145414","23969","86597","3002","mousetracking operator preview effect","0","0","0","no","true","no","1680"
"negative","undefined","1","undefined","undefined","white","no","legacy","legacy","legacy","0","relative","undefined","undefined","13","NA","0","0","0","0","0","0","0","29","29","0","15","0","no","03/08/19 11:21:52","A simple template for the mouse-tracking paradigm","yes","Experiment-FT.osexp","C:\Users\Kristen\Documents\opPreviewExperiment-master\procedure","no","mono","no","24","no","black","no","yes","1050","legacy","13","15","C:/Users/Kristen/Documents/opPreviewExperiment-master/procedure/subject-5.csv","legacy","Kafkaesque Koffka","3.2.6","mult","0","a","NA","NA","a","a","7340","NA","NA","20955","7340","2","1275","legacy","small","1024","2","48000","-16","experiment","2_7_mult_FI.jpg","5","odd","legacy","145443","NA","98998","NA","NA","3000","NA","3013","91657","145443","147866","23969","86597","3002","mousetracking operator preview effect","0","0","0","no","false","no","1680"
"neutral","undefined","1","undefined","undefined","white","no","legacy","legacy","legacy","0","relative","undefined","undefined","14","NA","0","0","0","0","0","0","0","30","30","0","15","0","no","03/08/19 11:21:52","A simple template for the mouse-tracking paradigm","yes","Experiment-FT.osexp","C:\Users\Kristen\Documents\opPreviewExperiment-master\procedure","no","mono","no","24","no","black","no","yes","1050","legacy","14","15","C:/Users/Kristen/Documents/opPreviewExperiment-master/procedure/subject-5.csv","legacy","Kafkaesque Koffka","3.2.6","add","0","l","NA","NA","a","a","7340","NA","NA","20955","7340","2","2156","legacy","large","1024","2","48000","-16","experiment","8_4_add_true.jpg","5","odd","legacy","147887","NA","98998","NA","NA","3000","NA","3013","91657","147887","151039","23969","86597","3002","mousetracking operator preview effect","0","0","0","no","true","no","1680"
"negative","undefined","1","undefined","undefined","white","no","legacy","legacy","legacy","0","relative","undefined","undefined","15","NA","0","0","0","0","0","0","0","31","31","0","15","0","no","03/08/19 11:21:52","A simple template for the mouse-tracking paradigm","yes","Experiment-FT.osexp","C:\Users\Kristen\Documents\opPreviewExperiment-master\procedure","no","mono","no","24","no","black","no","yes","1050","legacy","15","15","C:/Users/Kristen/Documents/opPreviewExperiment-master/procedure/subject-5.csv","legacy","Kafkaesque Koffka","3.2.6","mult","0","a","NA","NA","a","a","7340","NA","NA","20955","7340","2","2037","legacy","large","1024","2","48000","-16","experiment","4_9_mult_FNI.jpg","5","odd","legacy","151066","NA","98998","NA","NA","3000","NA","3013","91657","151066","154270","23969","86597","3002","mousetracking operator preview effect","0","0","0","no","false","no","1680"
"neutral","undefined","1","undefined","undefined","white","no","legacy","legacy","legacy","0","relative","undefined","undefined","16","NA","0","0","0","0","0","0","0","32","32","0","15","0","no","03/08/19 11:21:52","A simple template for the mouse-tracking paradigm","yes","Experiment-FT.osexp","C:\Users\Kristen\Documents\opPreviewExperiment-master\procedure","no","mono","no","24","no","black","no","yes","1050","legacy","16","15","C:/Users/Kristen/Documents/opPreviewExperiment-master/procedure/subject-5.csv","legacy","Kafkaesque Koffka","3.2.6","add","0","a","NA","NA","a","a","7340","NA","NA","20955","7340","2","2010","legacy","large","1024","2","48000","-16","experiment","8_4_add_FNI.jpg","5","odd","legacy","154293","NA","98998","NA","NA","3000","NA","3013","91657","154294","157304","23969","86597","3002","mousetracking operator preview effect","0","0","0","no","false","no","1680"
"neutral","undefined","1","undefined","undefined","white","no","legacy","legacy","legacy","0","relative","undefined","undefined","17","NA","0","0","0","0","0","0","0","33","33","0","15","0","no","03/08/19 11:21:52","A simple template for the mouse-tracking paradigm","yes","Experiment-FT.osexp","C:\Users\Kristen\Documents\opPreviewExperiment-master\procedure","no","mono","no","24","no","black","no","yes","1050","legacy","17","15","C:/Users/Kristen/Documents/opPreviewExperiment-master/procedure/subject-5.csv","legacy","Kafkaesque Koffka","3.2.6","mult","0","a","NA","NA","a","a","7340","NA","NA","20955","7340","2","3012","legacy","large","1024","2","48000","-16","experiment","6_8_mult_FI.jpg","5","odd","legacy","157330","NA","98998","NA","NA","3000","NA","3013","91657","157330","161341","23969","86597","3002","mousetracking operator preview effect","0","0","0","no","false","no","1680"
"neutral","undefined","1","undefined","undefined","white","no","legacy","legacy","legacy","0","relative","undefined","undefined","18","NA","0","0","0","0","0","0","0","34","34","0","15","0","no","03/08/19 11:21:52","A simple template for the mouse-tracking paradigm","yes","Experiment-FT.osexp","C:\Users\Kristen\Documents\opPreviewExperiment-master\procedure","no","mono","no","24","no","black","no","yes","1050","legacy","18","15","C:/Users/Kristen/Documents/opPreviewExperiment-master/procedure/subject-5.csv","legacy","Kafkaesque Koffka","3.2.6","mult","0","l","NA","NA","a","a","7340","NA","NA","20955","7340","2","1157","legacy","small","1024","2","48000","-16","experiment","2_7_mult_true.jpg","5","odd","legacy","161371","NA","98998","NA","NA","3000","NA","3013","91657","161371","163503","23969","86597","3002","mousetracking operator preview effect","0","0","0","no","true","no","1680"
"negative","undefined","1","undefined","undefined","white","no","legacy","legacy","legacy","0","relative","undefined","undefined","19","NA","0","0","0","0","0","0","0","35","35","0","15","0","no","03/08/19 11:21:52","A simple template for the mouse-tracking paradigm","yes","Experiment-FT.osexp","C:\Users\Kristen\Documents\opPreviewExperiment-master\procedure","no","mono","no","24","no","black","no","yes","1050","legacy","19","15","C:/Users/Kristen/Documents/opPreviewExperiment-master/procedure/subject-5.csv","legacy","Kafkaesque Koffka","3.2.6","mult","0","l","NA","NA","a","a","7340","NA","NA","20955","7340","2","2454","legacy","small","1024","2","48000","-16","experiment","3_6_mult_true.jpg","5","odd","legacy","163532","NA","98998","NA","NA","3000","NA","3013","91657","163532","167135","23969","86597","3002","mousetracking operator preview effect","0","0","0","no","true","no","1680"
"negative","undefined","1","undefined","undefined","white","no","legacy","legacy","legacy","0","relative","undefined","undefined","20","NA","0","0","0","0","0","0","0","36","36","0","15","0","no","03/08/19 11:21:52","A simple template for the mouse-tracking paradigm","yes","Experiment-FT.osexp","C:\Users\Kristen\Documents\opPreviewExperiment-master\procedure","no","mono","no","24","no","black","no","yes","1050","legacy","20","15","C:/Users/Kristen/Documents/opPreviewExperiment-master/procedure/subject-5.csv","legacy","Kafkaesque Koffka","3.2.6","mult","0","a","NA","NA","a","a","7340","NA","NA","20955","7340","2","2626","legacy","large","1024","2","48000","-16","experiment","9_7_mult_FI.jpg","5","odd","legacy","167149","NA","98998","NA","NA","3000","NA","3013","91657","167149","170921","23969","86597","3002","mousetracking operator preview effect","0","0","0","no","false","no","1680"
"negative","undefined","1","undefined","undefined","white","no","legacy","legacy","legacy","0","relative","undefined","undefined","21","NA","0","0","0","0","0","0","0","37","37","0","15","0","no","03/08/19 11:21:52","A simple template for the mouse-tracking paradigm","yes","Experiment-FT.osexp","C:\Users\Kristen\Documents\opPreviewExperiment-master\procedure","no","mono","no","24","no","black","no","yes","1050","legacy","21","15","C:/Users/Kristen/Documents/opPreviewExperiment-master/procedure/subject-5.csv","legacy","Kafkaesque Koffka","3.2.6","mult","0","a","NA","NA","a","a","7340","NA","NA","20955","7340","2","2604","legacy","small","1024","2","48000","-16","experiment","3_6_mult_FI.jpg","5","odd","legacy","170943","NA","98998","NA","NA","3000","NA","3013","91657","170943","174708","23969","86597","3002","mousetracking operator preview effect","0","0","0","no","false","no","1680"
"neutral","undefined","1","undefined","undefined","white","no","legacy","legacy","legacy","0","relative","undefined","undefined","22","NA","0","0","0","0","0","0","0","38","38","0","15","0","no","03/08/19 11:21:52","A simple template for the mouse-tracking paradigm","yes","Experiment-FT.osexp","C:\Users\Kristen\Documents\opPreviewExperiment-master\procedure","no","mono","no","24","no","black","no","yes","1050","legacy","22","15","C:/Users/Kristen/Documents/opPreviewExperiment-master/procedure/subject-5.csv","legacy","Kafkaesque Koffka","3.2.6","mult","0","a","NA","NA","a","a","7340","NA","NA","20955","7340","2","3516","legacy","large","1024","2","48000","-16","experiment","8_4_mult_FNI.jpg","5","odd","legacy","174738","NA","98998","NA","NA","3000","NA","3013","91657","174738","179219","23969","86597","3002","mousetracking operator preview effect","0","0","0","no","false","no","1680"
"neutral","undefined","1","undefined","undefined","white","no","legacy","legacy","legacy","0","relative","undefined","undefined","23","NA","0","0","0","0","0","0","0","39","39","0","15","0","no","03/08/19 11:21:52","A simple template for the mouse-tracking paradigm","yes","Experiment-FT.osexp","C:\Users\Kristen\Documents\opPreviewExperiment-master\procedure","no","mono","no","24","no","black","no","yes","1050","legacy","23","15","C:/Users/Kristen/Documents/opPreviewExperiment-master/procedure/subject-5.csv","legacy","Kafkaesque Koffka","3.2.6","mult","0","a","NA","NA","a","a","7340","NA","NA","20955","7340","2","4448","legacy","large","1024","2","48000","-16","experiment","9_7_mult_FNI.jpg","5","odd","legacy","179240","NA","98998","NA","NA","3000","NA","3013","91657","179240","184672","23969","86597","3002","mousetracking operator preview effect","0","0","0","no","false","no","1680"
"negative","undefined","1","undefined","undefined","white","no","legacy","legacy","legacy","0","relative","undefined","undefined","24","NA","0","0","0","0","0","0","0","40","40","0","15","0","no","03/08/19 11:21:52","A simple template for the mouse-tracking paradigm","yes","Experiment-FT.osexp","C:\Users\Kristen\Documents\opPreviewExperiment-master\procedure","no","mono","no","24","no","black","no","yes","1050","legacy","24","15","C:/Users/Kristen/Documents/opPreviewExperiment-master/procedure/subject-5.csv","legacy","Kafkaesque Koffka","3.2.6","add","0","l","NA","NA","a","a","7340","NA","NA","20955","7340","2","3947","legacy","small","1024","2","48000","-16","experiment","5_3_add_true.jpg","5","odd","legacy","184694","NA","98998","NA","NA","3000","NA","3013","91657","184694","189805","23969","86597","3002","mousetracking operator preview effect","0","0","0","no","true","no","1680"
"neutral","undefined","1","undefined","undefined","white","no","legacy","legacy","legacy","0","relative","undefined","undefined","25","NA","0","0","0","0","0","0","0","41","41","0","15","0","no","03/08/19 11:21:52","A simple template for the mouse-tracking paradigm","yes","Experiment-FT.osexp","C:\Users\Kristen\Documents\opPreviewExperiment-master\procedure","no","mono","no","24","no","black","no","yes","1050","legacy","25","15","C:/Users/Kristen/Documents/opPreviewExperiment-master/procedure/subject-5.csv","legacy","Kafkaesque Koffka","3.2.6","mult","0","l","NA","NA","a","a","7340","NA","NA","20955","7340","2","2252","legacy","large","1024","2","48000","-16","experiment","4_9_mult_true.jpg","5","odd","legacy","189833","NA","98998","NA","NA","3000","NA","3013","91657","189833","193060","23969","86597","3002","mousetracking operator preview effect","0","0","0","no","true","no","1680"
"negative","undefined","1","undefined","undefined","white","no","legacy","legacy","legacy","0","relative","undefined","undefined","26","NA","0","0","0","0","0","0","0","42","42","0","15","0","no","03/08/19 11:21:52","A simple template for the mouse-tracking paradigm","yes","Experiment-FT.osexp","C:\Users\Kristen\Documents\opPreviewExperiment-master\procedure","no","mono","no","24","no","black","no","yes","1050","legacy","26","15","C:/Users/Kristen/Documents/opPreviewExperiment-master/procedure/subject-5.csv","legacy","Kafkaesque Koffka","3.2.6","add","0","l","NA","NA","a","a","7340","NA","NA","20955","7340","2","5529","legacy","large","1024","2","48000","-16","experiment","9_7_add_true.jpg","5","odd","legacy","193091","NA","98998","NA","NA","3000","NA","3013","91657","193091","199782","23969","86597","3002","mousetracking operator preview effect","0","0","0","no","true","no","1680"
"negative","undefined","1","undefined","undefined","white","no","legacy","legacy","legacy","0","relative","undefined","undefined","27","NA","0","0","0","0","0","0","0","43","43","0","15","0","no","03/08/19 11:21:52","A simple template for the mouse-tracking paradigm","yes","Experiment-FT.osexp","C:\Users\Kristen\Documents\opPreviewExperiment-master\procedure","no","mono","no","24","no","black","no","yes","1050","legacy","27","15","C:/Users/Kristen/Documents/opPreviewExperiment-master/procedure/subject-5.csv","legacy","Kafkaesque Koffka","3.2.6","mult","0","a","NA","NA","a","a","7340","NA","NA","20955","7340","2","2315","legacy","small","1024","2","48000","-16","experiment","5_3_mult_FI.jpg","5","odd","legacy","199806","NA","98998","NA","NA","3000","NA","3013","91657","199807","203282","23969","86597","3002","mousetracking operator preview effect","0","0","0","no","false","no","1680"
"negative","undefined","1","undefined","undefined","white","no","legacy","legacy","legacy","0","relative","undefined","undefined","28","NA","0","0","0","0","0","0","0","44","44","0","15","0","no","03/08/19 11:21:52","A simple template for the mouse-tracking paradigm","yes","Experiment-FT.osexp","C:\Users\Kristen\Documents\opPreviewExperiment-master\procedure","no","mono","no","24","no","black","no","yes","1050","legacy","28","15","C:/Users/Kristen/Documents/opPreviewExperiment-master/procedure/subject-5.csv","legacy","Kafkaesque Koffka","3.2.6","mult","0","a","NA","NA","a","a","7340","NA","NA","20955","7340","2","1448","legacy","small","1024","2","48000","-16","experiment","8_2_mult_FI.jpg","5","odd","legacy","203302","NA","98998","NA","NA","3000","NA","3013","91657","203302","205912","23969","86597","3002","mousetracking operator preview effect","0","0","0","no","false","no","1680"
"negative","undefined","1","undefined","undefined","white","no","legacy","legacy","legacy","0","relative","undefined","undefined","29","NA","0","0","0","0","0","0","0","45","45","0","15","0","no","03/08/19 11:21:52","A simple template for the mouse-tracking paradigm","yes","Experiment-FT.osexp","C:\Users\Kristen\Documents\opPreviewExperiment-master\procedure","no","mono","no","24","no","black","no","yes","1050","legacy","29","15","C:/Users/Kristen/Documents/opPreviewExperiment-master/procedure/subject-5.csv","legacy","Kafkaesque Koffka","3.2.6","add","0","l","NA","NA","a","a","7340","NA","NA","20955","7340","2","2091","legacy","small","1024","2","48000","-16","experiment","2_7_add_true.jpg","5","odd","legacy","205942","NA","98998","NA","NA","3000","NA","3013","91657","205942","209199","23969","86597","3002","mousetracking operator preview effect","0","0","0","no","true","no","1680"
"negative","undefined","1","undefined","undefined","white","no","legacy","legacy","legacy","0","relative","undefined","undefined","30","NA","0","0","0","0","0","0","0","46","46","0","15","0","no","03/08/19 11:21:52","A simple template for the mouse-tracking paradigm","yes","Experiment-FT.osexp","C:\Users\Kristen\Documents\opPreviewExperiment-master\procedure","no","mono","no","24","no","black","no","yes","1050","legacy","30","15","C:/Users/Kristen/Documents/opPreviewExperiment-master/procedure/subject-5.csv","legacy","Kafkaesque Koffka","3.2.6","add","0","a","NA","NA","a","a","7340","NA","NA","20955","7340","2","2476","legacy","small","1024","2","48000","-16","experiment","5_3_add_FI.jpg","5","odd","legacy","209230","NA","98998","NA","NA","3000","NA","3013","91657","209230","212854","23969","86597","3002","mousetracking operator preview effect","0","0","0","no","false","no","1680"
"negative","undefined","1","undefined","undefined","white","no","legacy","legacy","legacy","0","relative","undefined","undefined","31","NA","0","0","0","0","0","0","0","47","47","0","15","0","no","03/08/19 11:21:52","A simple template for the mouse-tracking paradigm","yes","Experiment-FT.osexp","C:\Users\Kristen\Documents\opPreviewExperiment-master\procedure","no","mono","no","24","no","black","no","yes","1050","legacy","31","15","C:/Users/Kristen/Documents/opPreviewExperiment-master/procedure/subject-5.csv","legacy","Kafkaesque Koffka","3.2.6","add","0","a","NA","NA","a","a","7340","NA","NA","20955","7340","2","2020","legacy","large","1024","2","48000","-16","experiment","9_7_add_FI.jpg","5","odd","legacy","212874","NA","98998","NA","NA","3000","NA","3013","91657","212874","216056","23969","86597","3002","mousetracking operator preview effect","0","0","0","no","false","no","1680"
"negative","undefined","1","undefined","undefined","white","no","legacy","legacy","legacy","0","relative","undefined","undefined","32","NA","0","0","0","0","0","0","0","48","48","0","15","0","no","03/08/19 11:21:52","A simple template for the mouse-tracking paradigm","yes","Experiment-FT.osexp","C:\Users\Kristen\Documents\opPreviewExperiment-master\procedure","no","mono","no","24","no","black","no","yes","1050","legacy","32","15","C:/Users/Kristen/Documents/opPreviewExperiment-master/procedure/subject-5.csv","legacy","Kafkaesque Koffka","3.2.6","add","0","a","NA","NA","a","a","7340","NA","NA","20955","7340","2","3144","legacy","large","1024","2","48000","-16","experiment","8_4_add_FNI.jpg","5","odd","legacy","216082","NA","98998","NA","NA","3000","NA","3013","91657","216082","220344","23969","86597","3002","mousetracking operator preview effect","0","0","0","no","false","no","1680"
"neutral","undefined","1","undefined","undefined","white","no","legacy","legacy","legacy","0","relative","undefined","undefined","33","NA","0","0","0","0","0","0","0","49","49","0","15","0","no","03/08/19 11:21:52","A simple template for the mouse-tracking paradigm","yes","Experiment-FT.osexp","C:\Users\Kristen\Documents\opPreviewExperiment-master\procedure","no","mono","no","24","no","black","no","yes","1050","legacy","33","15","C:/Users/Kristen/Documents/opPreviewExperiment-master/procedure/subject-5.csv","legacy","Kafkaesque Koffka","3.2.6","add","0","a","NA","NA","a","a","7340","NA","NA","20955","7340","2","2420","legacy","large","1024","2","48000","-16","experiment","9_7_add_FNI.jpg","5","odd","legacy","220366","NA","98998","NA","NA","3000","NA","3013","91657","220366","223775","23969","86597","3002","mousetracking operator preview effect","0","0","0","no","false","no","1680"
"negative","undefined","1","undefined","undefined","white","no","legacy","legacy","legacy","0","relative","undefined","undefined","34","NA","0","0","0","0","0","0","0","50","50","0","15","0","no","03/08/19 11:21:52","A simple template for the mouse-tracking paradigm","yes","Experiment-FT.osexp","C:\Users\Kristen\Documents\opPreviewExperiment-master\procedure","no","mono","no","24","no","black","no","yes","1050","legacy","34","15","C:/Users/Kristen/Documents/opPreviewExperiment-master/procedure/subject-5.csv","legacy","Kafkaesque Koffka","3.2.6","mult","0","a","NA","NA","a","a","7340","NA","NA","20955","7340","2","4642","legacy","small","1024","2","48000","-16","experiment","2_7_mult_FNI.jpg","5","odd","legacy","223805","NA","98998","NA","NA","3000","NA","3013","91657","223805","229590","23969","86597","3002","mousetracking operator preview effect","0","0","0","no","false","no","1680"
"neutral","undefined","1","undefined","undefined","white","no","legacy","legacy","legacy","0","relative","undefined","undefined","35","NA","0","0","0","0","0","0","0","51","51","0","15","0","no","03/08/19 11:21:52","A simple template for the mouse-tracking paradigm","yes","Experiment-FT.osexp","C:\Users\Kristen\Documents\opPreviewExperiment-master\procedure","no","mono","no","24","no","black","no","yes","1050","legacy","35","15","C:/Users/Kristen/Documents/opPreviewExperiment-master/procedure/subject-5.csv","legacy","Kafkaesque Koffka","3.2.6","add","0","l","NA","NA","a","a","7340","NA","NA","20955","7340","2","1335","legacy","small","1024","2","48000","-16","experiment","3_6_add_true.jpg","5","odd","legacy","229611","NA","98998","NA","NA","3000","NA","3013","91657","229611","231939","23969","86597","3002","mousetracking operator preview effect","0","0","0","no","true","no","1680"
"negative","undefined","1","undefined","undefined","white","no","legacy","legacy","legacy","0","relative","undefined","undefined","36","NA","0","0","0","0","0","0","0","52","52","0","15","0","no","03/08/19 11:21:52","A simple template for the mouse-tracking paradigm","yes","Experiment-FT.osexp","C:\Users\Kristen\Documents\opPreviewExperiment-master\procedure","no","mono","no","24","no","black","no","yes","1050","legacy","36","15","C:/Users/Kristen/Documents/opPreviewExperiment-master/procedure/subject-5.csv","legacy","Kafkaesque Koffka","3.2.6","add","0","a","NA","NA","a","a","7340","NA","NA","20955","7340","2","1932","legacy","small","1024","2","48000","-16","experiment","8_2_add_FI.jpg","5","odd","legacy","231968","NA","98998","NA","NA","3000","NA","3013","91657","231968","235063","23969","86597","3002","mousetracking operator preview effect","0","0","0","no","false","no","1680"
"neutral","undefined","1","undefined","undefined","white","no","legacy","legacy","legacy","0","relative","undefined","undefined","37","NA","0","0","0","0","0","0","0","53","53","0","15","0","no","03/08/19 11:21:52","A simple template for the mouse-tracking paradigm","yes","Experiment-FT.osexp","C:\Users\Kristen\Documents\opPreviewExperiment-master\procedure","no","mono","no","24","no","black","no","yes","1050","legacy","37","15","C:/Users/Kristen/Documents/opPreviewExperiment-master/procedure/subject-5.csv","legacy","Kafkaesque Koffka","3.2.6","mult","0","a","NA","NA","a","a","7340","NA","NA","20955","7340","2","2758","legacy","large","1024","2","48000","-16","experiment","9_7_mult_FI.jpg","5","odd","legacy","235084","NA","98998","NA","NA","3000","NA","3013","91657","235084","238815","23969","86597","3002","mousetracking operator preview effect","0","0","0","no","false","no","1680"
"negative","undefined","1","undefined","undefined","white","no","legacy","legacy","legacy","0","relative","undefined","undefined","38","NA","0","0","0","0","0","0","0","54","54","0","15","0","no","03/08/19 11:21:52","A simple template for the mouse-tracking paradigm","yes","Experiment-FT.osexp","C:\Users\Kristen\Documents\opPreviewExperiment-master\procedure","no","mono","no","24","no","black","no","yes","1050","legacy","38","15","C:/Users/Kristen/Documents/opPreviewExperiment-master/procedure/subject-5.csv","legacy","Kafkaesque Koffka","3.2.6","mult","0","l","NA","NA","a","a","7340","NA","NA","20955","7340","2","2061","legacy","small","1024","2","48000","-16","experiment","3_6_mult_true.jpg","5","odd","legacy","238836","NA","98998","NA","NA","3000","NA","3013","91657","238836","242029","23969","86597","3002","mousetracking operator preview effect","0","0","0","no","true","no","1680"
"negative","undefined","1","undefined","undefined","white","no","legacy","legacy","legacy","0","relative","undefined","undefined","39","NA","0","0","0","0","0","0","0","55","55","0","15","0","no","03/08/19 11:21:52","A simple template for the mouse-tracking paradigm","yes","Experiment-FT.osexp","C:\Users\Kristen\Documents\opPreviewExperiment-master\procedure","no","mono","no","24","no","black","no","yes","1050","legacy","39","15","C:/Users/Kristen/Documents/opPreviewExperiment-master/procedure/subject-5.csv","legacy","Kafkaesque Koffka","3.2.6","add","0","l","NA","NA","a","a","7340","NA","NA","20955","7340","2","1859","legacy","large","1024","2","48000","-16","experiment","8_4_add_true.jpg","5","odd","legacy","242044","NA","98998","NA","NA","3000","NA","3013","91657","242044","245047","23969","86597","3002","mousetracking operator preview effect","0","0","0","no","true","no","1680"
"neutral","undefined","1","undefined","undefined","white","no","legacy","legacy","legacy","0","relative","undefined","undefined","40","NA","0","0","0","0","0","0","0","56","56","0","15","0","no","03/08/19 11:21:52","A simple template for the mouse-tracking paradigm","yes","Experiment-FT.osexp","C:\Users\Kristen\Documents\opPreviewExperiment-master\procedure","no","mono","no","24","no","black","no","yes","1050","legacy","40","15","C:/Users/Kristen/Documents/opPreviewExperiment-master/procedure/subject-5.csv","legacy","Kafkaesque Koffka","3.2.6","add","0","l","NA","NA","a","a","7340","NA","NA","20955","7340","2","1662","legacy","small","1024","2","48000","-16","experiment","5_3_add_true.jpg","5","odd","legacy","245062","NA","98998","NA","NA","3000","NA","3013","91657","245063","247698","23969","86597","3002","mousetracking operator preview effect","0","0","0","no","true","no","1680"
"negative","undefined","0","undefined","undefined","white","no","legacy","legacy","legacy","0","relative","undefined","undefined","41","NA","0","0","0","0","0","0","0","57","57","0","15","0","no","03/08/19 11:21:52","A simple template for the mouse-tracking paradigm","yes","Experiment-FT.osexp","C:\Users\Kristen\Documents\opPreviewExperiment-master\procedure","no","mono","no","24","no","black","no","yes","1050","legacy","41","15","C:/Users/Kristen/Documents/opPreviewExperiment-master/procedure/subject-5.csv","legacy","Kafkaesque Koffka","3.2.6","add","0","l","NA","NA","a","a","7340","NA","NA","20955","7340","2","1668","legacy","small","1024","2","48000","-16","experiment","2_7_add_FI.jpg","5","odd","legacy","247715","NA","98998","NA","NA","3000","NA","3013","91657","247715","251559","23969","86597","3002","mousetracking operator preview effect","0","0","0","no","false","no","1680"
"negative","undefined","1","undefined","undefined","white","no","legacy","legacy","legacy","0","relative","undefined","undefined","42","NA","0","0","0","0","0","0","0","58","58","0","15","0","no","03/08/19 11:21:52","A simple template for the mouse-tracking paradigm","yes","Experiment-FT.osexp","C:\Users\Kristen\Documents\opPreviewExperiment-master\procedure","no","mono","no","24","no","black","no","yes","1050","legacy","42","15","C:/Users/Kristen/Documents/opPreviewExperiment-master/procedure/subject-5.csv","legacy","Kafkaesque Koffka","3.2.6","mult","0","l","NA","NA","a","a","7340","NA","NA","20955","7340","2","3923","legacy","small","1024","2","48000","-16","experiment","5_3_mult_true.jpg","5","odd","legacy","251594","NA","98998","NA","NA","3000","NA","3013","91657","251594","256656","23969","86597","3002","mousetracking operator preview effect","0","0","0","no","true","no","1680"
"negative","undefined","1","undefined","undefined","white","no","legacy","legacy","legacy","0","relative","undefined","undefined","43","NA","0","0","0","0","0","0","0","59","59","0","15","0","no","03/08/19 11:21:52","A simple template for the mouse-tracking paradigm","yes","Experiment-FT.osexp","C:\Users\Kristen\Documents\opPreviewExperiment-master\procedure","no","mono","no","24","no","black","no","yes","1050","legacy","43","15","C:/Users/Kristen/Documents/opPreviewExperiment-master/procedure/subject-5.csv","legacy","Kafkaesque Koffka","3.2.6","add","0","l","NA","NA","a","a","7340","NA","NA","20955","7340","2","1997","legacy","small","1024","2","48000","-16","experiment","2_7_add_true.jpg","5","odd","legacy","256683","NA","98998","NA","NA","3000","NA","3013","91657","256683","259813","23969","86597","3002","mousetracking operator preview effect","0","0","0","no","true","no","1680"
"neutral","undefined","1","undefined","undefined","white","no","legacy","legacy","legacy","0","relative","undefined","undefined","44","NA","0","0","0","0","0","0","0","60","60","0","15","0","no","03/08/19 11:21:52","A simple template for the mouse-tracking paradigm","yes","Experiment-FT.osexp","C:\Users\Kristen\Documents\opPreviewExperiment-master\procedure","no","mono","no","24","no","black","no","yes","1050","legacy","44","15","C:/Users/Kristen/Documents/opPreviewExperiment-master/procedure/subject-5.csv","legacy","Kafkaesque Koffka","3.2.6","add","0","a","NA","NA","a","a","7340","NA","NA","20955","7340","2","1799","legacy","small","1024","2","48000","-16","experiment","5_3_add_FNI.jpg","5","odd","legacy","259833","NA","98998","NA","NA","3000","NA","3013","91657","259833","262620","23969","86597","3002","mousetracking operator preview effect","0","0","0","no","false","no","1680"
"neutral","undefined","1","undefined","undefined","white","no","legacy","legacy","legacy","0","relative","undefined","undefined","45","NA","0","0","0","0","0","0","0","61","61","0","15","0","no","03/08/19 11:21:52","A simple template for the mouse-tracking paradigm","yes","Experiment-FT.osexp","C:\Users\Kristen\Documents\opPreviewExperiment-master\procedure","no","mono","no","24","no","black","no","yes","1050","legacy","45","15","C:/Users/Kristen/Documents/opPreviewExperiment-master/procedure/subject-5.csv","legacy","Kafkaesque Koffka","3.2.6","mult","0","a","NA","NA","a","a","7340","NA","NA","20955","7340","2","1886","legacy","large","1024","2","48000","-16","experiment","4_9_mult_FNI.jpg","5","odd","legacy","262649","NA","98998","NA","NA","3000","NA","3013","91657","262649","265507","23969","86597","3002","mousetracking operator preview effect","0","0","0","no","false","no","1680"
"neutral","undefined","1","undefined","undefined","white","no","legacy","legacy","legacy","0","relative","undefined","undefined","46","NA","0","0","0","0","0","0","0","62","62","0","15","0","no","03/08/19 11:21:52","A simple template for the mouse-tracking paradigm","yes","Experiment-FT.osexp","C:\Users\Kristen\Documents\opPreviewExperiment-master\procedure","no","mono","no","24","no","black","no","yes","1050","legacy","46","15","C:/Users/Kristen/Documents/opPreviewExperiment-master/procedure/subject-5.csv","legacy","Kafkaesque Koffka","3.2.6","mult","0","a","NA","NA","a","a","7340","NA","NA","20955","7340","2","2843","legacy","large","1024","2","48000","-16","experiment","6_8_mult_FNI.jpg","5","odd","legacy","265534","NA","98998","NA","NA","3000","NA","3013","91657","265534","269362","23969","86597","3002","mousetracking operator preview effect","0","0","0","no","false","no","1680"
"neutral","undefined","1","undefined","undefined","white","no","legacy","legacy","legacy","0","relative","undefined","undefined","47","NA","0","0","0","0","0","0","0","63","63","0","15","0","no","03/08/19 11:21:52","A simple template for the mouse-tracking paradigm","yes","Experiment-FT.osexp","C:\Users\Kristen\Documents\opPreviewExperiment-master\procedure","no","mono","no","24","no","black","no","yes","1050","legacy","47","15","C:/Users/Kristen/Documents/opPreviewExperiment-master/procedure/subject-5.csv","legacy","Kafkaesque Koffka","3.2.6","mult","0","l","NA","NA","a","a","7340","NA","NA","20955","7340","2","1756","legacy","large","1024","2","48000","-16","experiment","6_8_mult_true.jpg","5","odd","legacy","269384","NA","98998","NA","NA","3000","NA","3013","91657","269384","272113","23969","86597","3002","mousetracking operator preview effect","0","0","0","no","true","no","1680"
"negative","undefined","1","undefined","undefined","white","no","legacy","legacy","legacy","0","relative","undefined","undefined","48","NA","0","0","0","0","0","0","0","64","64","0","15","0","no","03/08/19 11:21:52","A simple template for the mouse-tracking paradigm","yes","Experiment-FT.osexp","C:\Users\Kristen\Documents\opPreviewExperiment-master\procedure","no","mono","no","24","no","black","no","yes","1050","legacy","48","15","C:/Users/Kristen/Documents/opPreviewExperiment-master/procedure/subject-5.csv","legacy","Kafkaesque Koffka","3.2.6","add","0","a","NA","NA","a","a","7340","NA","NA","20955","7340","2","3126","legacy","large","1024","2","48000","-16","experiment","9_7_add_FNI.jpg","5","odd","legacy","272127","NA","98998","NA","NA","3000","NA","3013","91657","272127","276398","23969","86597","3002","mousetracking operator preview effect","0","0","0","no","false","no","1680"
"neutral","undefined","1","undefined","undefined","white","no","legacy","legacy","legacy","0","relative","undefined","undefined","49","NA","0","0","0","0","0","0","0","65","65","0","15","0","no","03/08/19 11:21:52","A simple template for the mouse-tracking paradigm","yes","Experiment-FT.osexp","C:\Users\Kristen\Documents\opPreviewExperiment-master\procedure","no","mono","no","24","no","black","no","yes","1050","legacy","49","15","C:/Users/Kristen/Documents/opPreviewExperiment-master/procedure/subject-5.csv","legacy","Kafkaesque Koffka","3.2.6","mult","0","l","NA","NA","a","a","7340","NA","NA","20955","7340","2","1783","legacy","large","1024","2","48000","-16","experiment","8_4_mult_true.jpg","5","odd","legacy","276419","NA","98998","NA","NA","3000","NA","3013","91657","276419","279169","23969","86597","3002","mousetracking operator preview effect","0","0","0","no","true","no","1680"
"negative","undefined","1","undefined","undefined","white","no","legacy","legacy","legacy","0","relative","undefined","undefined","50","NA","0","0","0","0","0","0","0","66","66","0","15","0","no","03/08/19 11:21:52","A simple template for the mouse-tracking paradigm","yes","Experiment-FT.osexp","C:\Users\Kristen\Documents\opPreviewExperiment-master\procedure","no","mono","no","24","no","black","no","yes","1050","legacy","50","15","C:/Users/Kristen/Documents/opPreviewExperiment-master/procedure/subject-5.csv","legacy","Kafkaesque Koffka","3.2.6","add","0","l","NA","NA","a","a","7340","NA","NA","20955","7340","2","1446","legacy","small","1024","2","48000","-16","experiment","8_2_add_true.jpg","5","odd","legacy","279190","NA","98998","NA","NA","3000","NA","3013","91657","279190","281805","23969","86597","3002","mousetracking operator preview effect","0","0","0","no","true","no","1680"
"neutral","undefined","1","undefined","undefined","white","no","legacy","legacy","legacy","0","relative","undefined","undefined","51","NA","0","0","0","0","0","0","0","67","67","0","15","0","no","03/08/19 11:21:52","A simple template for the mouse-tracking paradigm","yes","Experiment-FT.osexp","C:\Users\Kristen\Documents\opPreviewExperiment-master\procedure","no","mono","no","24","no","black","no","yes","1050","legacy","51","15","C:/Users/Kristen/Documents/opPreviewExperiment-master/procedure/subject-5.csv","legacy","Kafkaesque Koffka","3.2.6","add","0","l","NA","NA","a","a","7340","NA","NA","20955","7340","2","2590","legacy","large","1024","2","48000","-16","experiment","6_8_add_true.jpg","5","odd","legacy","281827","NA","98998","NA","NA","3000","NA","3013","91657","281827","285393","23969","86597","3002","mousetracking operator preview effect","0","0","0","no","true","no","1680"
"negative","undefined","1","undefined","undefined","white","no","legacy","legacy","legacy","0","relative","undefined","undefined","52","NA","0","0","0","0","0","0","0","68","68","0","15","0","no","03/08/19 11:21:52","A simple template for the mouse-tracking paradigm","yes","Experiment-FT.osexp","C:\Users\Kristen\Documents\opPreviewExperiment-master\procedure","no","mono","no","24","no","black","no","yes","1050","legacy","52","15","C:/Users/Kristen/Documents/opPreviewExperiment-master/procedure/subject-5.csv","legacy","Kafkaesque Koffka","3.2.6","mult","0","l","NA","NA","a","a","7340","NA","NA","20955","7340","2","2954","legacy","large","1024","2","48000","-16","experiment","9_7_mult_true.jpg","5","odd","legacy","285417","NA","98998","NA","NA","3000","NA","3013","91657","285417","289497","23969","86597","3002","mousetracking operator preview effect","0","0","0","no","true","no","1680"
"neutral","undefined","1","undefined","undefined","white","no","legacy","legacy","legacy","0","relative","undefined","undefined","53","NA","0","0","0","0","0","0","0","69","69","0","15","0","no","03/08/19 11:21:52","A simple template for the mouse-tracking paradigm","yes","Experiment-FT.osexp","C:\Users\Kristen\Documents\opPreviewExperiment-master\procedure","no","mono","no","24","no","black","no","yes","1050","legacy","53","15","C:/Users/Kristen/Documents/opPreviewExperiment-master/procedure/subject-5.csv","legacy","Kafkaesque Koffka","3.2.6","mult","0","l","NA","NA","a","a","7340","NA","NA","20955","7340","2","1142","legacy","small","1024","2","48000","-16","experiment","5_3_mult_true.jpg","5","odd","legacy","289515","NA","98998","NA","NA","3000","NA","3013","91657","289516","291633","23969","86597","3002","mousetracking operator preview effect","0","0","0","no","true","no","1680"
"neutral","undefined","1","undefined","undefined","white","no","legacy","legacy","legacy","0","relative","undefined","undefined","54","NA","0","0","0","0","0","0","0","70","70","0","15","0","no","03/08/19 11:21:52","A simple template for the mouse-tracking paradigm","yes","Experiment-FT.osexp","C:\Users\Kristen\Documents\opPreviewExperiment-master\procedure","no","mono","no","24","no","black","no","yes","1050","legacy","54","15","C:/Users/Kristen/Documents/opPreviewExperiment-master/procedure/subject-5.csv","legacy","Kafkaesque Koffka","3.2.6","add","0","a","NA","NA","a","a","7340","NA","NA","20955","7340","2","2310","legacy","small","1024","2","48000","-16","experiment","8_2_add_FI.jpg","5","odd","legacy","291654","NA","98998","NA","NA","3000","NA","3013","91657","291654","294938","23969","86597","3002","mousetracking operator preview effect","0","0","0","no","false","no","1680"
"negative","undefined","1","undefined","undefined","white","no","legacy","legacy","legacy","0","relative","undefined","undefined","55","NA","0","0","0","0","0","0","0","71","71","0","15","0","no","03/08/19 11:21:52","A simple template for the mouse-tracking paradigm","yes","Experiment-FT.osexp","C:\Users\Kristen\Documents\opPreviewExperiment-master\procedure","no","mono","no","24","no","black","no","yes","1050","legacy","55","15","C:/Users/Kristen/Documents/opPreviewExperiment-master/procedure/subject-5.csv","legacy","Kafkaesque Koffka","3.2.6","add","0","a","NA","NA","a","a","7340","NA","NA","20955","7340","2","1397","legacy","large","1024","2","48000","-16","experiment","8_4_add_FI.jpg","5","odd","legacy","294967","NA","98998","NA","NA","3000","NA","3013","91657","294967","297499","23969","86597","3002","mousetracking operator preview effect","0","0","0","no","false","no","1680"
"negative","undefined","1","undefined","undefined","white","no","legacy","legacy","legacy","0","relative","undefined","undefined","56","NA","0","0","0","0","0","0","0","72","72","0","15","0","no","03/08/19 11:21:52","A simple template for the mouse-tracking paradigm","yes","Experiment-FT.osexp","C:\Users\Kristen\Documents\opPreviewExperiment-master\procedure","no","mono","no","24","no","black","no","yes","1050","legacy","56","15","C:/Users/Kristen/Documents/opPreviewExperiment-master/procedure/subject-5.csv","legacy","Kafkaesque Koffka","3.2.6","add","0","a","NA","NA","a","a","7340","NA","NA","20955","7340","2","1871","legacy","small","1024","2","48000","-16","experiment","2_7_add_FNI.jpg","5","odd","legacy","297529","NA","98998","NA","NA","3000","NA","3013","91657","297529","300553","23969","86597","3002","mousetracking operator preview effect","0","0","0","no","false","no","1680"
"negative","undefined","1","undefined","undefined","white","no","legacy","legacy","legacy","0","relative","undefined","undefined","57","NA","0","0","0","0","0","0","0","73","73","0","15","0","no","03/08/19 11:21:52","A simple template for the mouse-tracking paradigm","yes","Experiment-FT.osexp","C:\Users\Kristen\Documents\opPreviewExperiment-master\procedure","no","mono","no","24","no","black","no","yes","1050","legacy","57","15","C:/Users/Kristen/Documents/opPreviewExperiment-master/procedure/subject-5.csv","legacy","Kafkaesque Koffka","3.2.6","add","0","a","NA","NA","a","a","7340","NA","NA","20955","7340","2","1623","legacy","large","1024","2","48000","-16","experiment","4_9_add_FI.jpg","5","odd","legacy","300581","NA","98998","NA","NA","3000","NA","3013","91657","300582","303365","23969","86597","3002","mousetracking operator preview effect","0","0","0","no","false","no","1680"
"neutral","undefined","1","undefined","undefined","white","no","legacy","legacy","legacy","0","relative","undefined","undefined","58","NA","0","0","0","0","0","0","0","74","74","0","15","0","no","03/08/19 11:21:52","A simple template for the mouse-tracking paradigm","yes","Experiment-FT.osexp","C:\Users\Kristen\Documents\opPreviewExperiment-master\procedure","no","mono","no","24","no","black","no","yes","1050","legacy","58","15","C:/Users/Kristen/Documents/opPreviewExperiment-master/procedure/subject-5.csv","legacy","Kafkaesque Koffka","3.2.6","add","0","a","NA","NA","a","a","7340","NA","NA","20955","7340","2","1930","legacy","small","1024","2","48000","-16","experiment","8_2_add_FNI.jpg","5","odd","legacy","303388","NA","98998","NA","NA","3000","NA","3013","91657","303388","306307","23969","86597","3002","mousetracking operator preview effect","0","0","0","no","false","no","1680"
"neutral","undefined","1","undefined","undefined","white","no","legacy","legacy","legacy","0","relative","undefined","undefined","59","NA","0","0","0","0","0","0","0","75","75","0","15","0","no","03/08/19 11:21:52","A simple template for the mouse-tracking paradigm","yes","Experiment-FT.osexp","C:\Users\Kristen\Documents\opPreviewExperiment-master\procedure","no","mono","no","24","no","black","no","yes","1050","legacy","59","15","C:/Users/Kristen/Documents/opPreviewExperiment-master/procedure/subject-5.csv","legacy","Kafkaesque Koffka","3.2.6","mult","0","a","NA","NA","a","a","7340","NA","NA","20955","7340","2","2564","legacy","small","1024","2","48000","-16","experiment","3_6_mult_FI.jpg","5","odd","legacy","306329","NA","98998","NA","NA","3000","NA","3013","91657","306329","309866","23969","86597","3002","mousetracking operator preview effect","0","0","0","no","false","no","1680"
"neutral","undefined","1","undefined","undefined","white","no","legacy","legacy","legacy","0","relative","undefined","undefined","60","NA","0","0","0","0","0","0","0","76","76","0","15","0","no","03/08/19 11:21:52","A simple template for the mouse-tracking paradigm","yes","Experiment-FT.osexp","C:\Users\Kristen\Documents\opPreviewExperiment-master\procedure","no","mono","no","24","no","black","no","yes","1050","legacy","60","15","C:/Users/Kristen/Documents/opPreviewExperiment-master/procedure/subject-5.csv","legacy","Kafkaesque Koffka","3.2.6","add","0","l","NA","NA","a","a","7340","NA","NA","20955","7340","2","1170","legacy","small","1024","2","48000","-16","experiment","2_7_add_true.jpg","5","odd","legacy","309884","NA","98998","NA","NA","3000","NA","3013","91657","309884","312026","23969","86597","3002","mousetracking operator preview effect","0","0","0","no","true","no","1680"
"negative","undefined","1","undefined","undefined","white","no","legacy","legacy","legacy","0","relative","undefined","undefined","61","NA","0","0","0","0","0","0","0","77","77","0","15","0","no","03/08/19 11:21:52","A simple template for the mouse-tracking paradigm","yes","Experiment-FT.osexp","C:\Users\Kristen\Documents\opPreviewExperiment-master\procedure","no","mono","no","24","no","black","no","yes","1050","legacy","61","15","C:/Users/Kristen/Documents/opPreviewExperiment-master/procedure/subject-5.csv","legacy","Kafkaesque Koffka","3.2.6","mult","0","a","NA","NA","a","a","7340","NA","NA","20955","7340","2","2032","legacy","large","1024","2","48000","-16","experiment","6_8_mult_FNI.jpg","5","odd","legacy","312056","NA","98998","NA","NA","3000","NA","3013","91657","312056","315226","23969","86597","3002","mousetracking operator preview effect","0","0","0","no","false","no","1680"
"negative","undefined","1","undefined","undefined","white","no","legacy","legacy","legacy","0","relative","undefined","undefined","62","NA","0","0","0","0","0","0","0","78","78","0","15","0","no","03/08/19 11:21:52","A simple template for the mouse-tracking paradigm","yes","Experiment-FT.osexp","C:\Users\Kristen\Documents\opPreviewExperiment-master\procedure","no","mono","no","24","no","black","no","yes","1050","legacy","62","15","C:/Users/Kristen/Documents/opPreviewExperiment-master/procedure/subject-5.csv","legacy","Kafkaesque Koffka","3.2.6","mult","0","a","NA","NA","a","a","7340","NA","NA","20955","7340","2","2779","legacy","large","1024","2","48000","-16","experiment","6_8_mult_FI.jpg","5","odd","legacy","315255","NA","98998","NA","NA","3000","NA","3013","91657","315256","319181","23969","86597","3002","mousetracking operator preview effect","0","0","0","no","false","no","1680"
"negative","undefined","1","undefined","undefined","white","no","legacy","legacy","legacy","0","relative","undefined","undefined","63","NA","0","0","0","0","0","0","0","79","79","0","15","0","no","03/08/19 11:21:52","A simple template for the mouse-tracking paradigm","yes","Experiment-FT.osexp","C:\Users\Kristen\Documents\opPreviewExperiment-master\procedure","no","mono","no","24","no","black","no","yes","1050","legacy","63","15","C:/Users/Kristen/Documents/opPreviewExperiment-master/procedure/subject-5.csv","legacy","Kafkaesque Koffka","3.2.6","mult","0","a","NA","NA","a","a","7340","NA","NA","20955","7340","2","1425","legacy","small","1024","2","48000","-16","experiment","5_3_mult_FNI.jpg","5","odd","legacy","319208","NA","98998","NA","NA","3000","NA","3013","91657","319208","321800","23969","86597","3002","mousetracking operator preview effect","0","0","0","no","false","no","1680"
"negative","undefined","1","undefined","undefined","white","no","legacy","legacy","legacy","0","relative","undefined","undefined","64","NA","0","0","0","0","0","0","0","80","80","0","15","0","no","03/08/19 11:21:52","A simple template for the mouse-tracking paradigm","yes","Experiment-FT.osexp","C:\Users\Kristen\Documents\opPreviewExperiment-master\procedure","no","mono","no","24","no","black","no","yes","1050","legacy","64","15","C:/Users/Kristen/Documents/opPreviewExperiment-master/procedure/subject-5.csv","legacy","Kafkaesque Koffka","3.2.6","mult","0","l","NA","NA","a","a","7340","NA","NA","20955","7340","2","2037","legacy","small","1024","2","48000","-16","experiment","2_7_mult_true.jpg","5","odd","legacy","321832","NA","98998","NA","NA","3000","NA","3013","91657","321832","325019","23969","86597","3002","mousetracking operator preview effect","0","0","0","no","true","no","1680"
"neutral","undefined","1","undefined","undefined","white","no","legacy","legacy","legacy","0","relative","undefined","undefined","65","NA","0","0","0","0","0","0","0","81","81","0","15","0","no","03/08/19 11:21:52","A simple template for the mouse-tracking paradigm","yes","Experiment-FT.osexp","C:\Users\Kristen\Documents\opPreviewExperiment-master\procedure","no","mono","no","24","no","black","no","yes","1050","legacy","65","15","C:/Users/Kristen/Documents/opPreviewExperiment-master/procedure/subject-5.csv","legacy","Kafkaesque Koffka","3.2.6","add","0","a","NA","NA","a","a","7340","NA","NA","20955","7340","2","3000","legacy","large","1024","2","48000","-16","experiment","4_9_add_FNI.jpg","5","odd","legacy","325039","NA","98998","NA","NA","3000","NA","3013","91657","325039","329027","23969","86597","3002","mousetracking operator preview effect","0","0","0","no","false","no","1680"
"negative","undefined","1","undefined","undefined","white","no","legacy","legacy","legacy","0","relative","undefined","undefined","66","NA","0","0","0","0","0","0","0","82","82","0","15","0","no","03/08/19 11:21:52","A simple template for the mouse-tracking paradigm","yes","Experiment-FT.osexp","C:\Users\Kristen\Documents\opPreviewExperiment-master\procedure","no","mono","no","24","no","black","no","yes","1050","legacy","66","15","C:/Users/Kristen/Documents/opPreviewExperiment-master/procedure/subject-5.csv","legacy","Kafkaesque Koffka","3.2.6","add","0","l","NA","NA","a","a","7340","NA","NA","20955","7340","2","1563","legacy","small","1024","2","48000","-16","experiment","3_6_add_true.jpg","5","odd","legacy","329048","NA","98998","NA","NA","3000","NA","3013","91657","329048","331756","23969","86597","3002","mousetracking operator preview effect","0","0","0","no","true","no","1680"
"neutral","undefined","1","undefined","undefined","white","no","legacy","legacy","legacy","0","relative","undefined","undefined","67","NA","0","0","0","0","0","0","0","83","83","0","15","0","no","03/08/19 11:21:52","A simple template for the mouse-tracking paradigm","yes","Experiment-FT.osexp","C:\Users\Kristen\Documents\opPreviewExperiment-master\procedure","no","mono","no","24","no","black","no","yes","1050","legacy","67","15","C:/Users/Kristen/Documents/opPreviewExperiment-master/procedure/subject-5.csv","legacy","Kafkaesque Koffka","3.2.6","add","0","l","NA","NA","a","a","7340","NA","NA","20955","7340","2","1422","legacy","small","1024","2","48000","-16","experiment","3_6_add_true.jpg","5","odd","legacy","331785","NA","98998","NA","NA","3000","NA","3013","91657","331785","334186","23969","86597","3002","mousetracking operator preview effect","0","0","0","no","true","no","1680"
"neutral","undefined","1","undefined","undefined","white","no","legacy","legacy","legacy","0","relative","undefined","undefined","68","NA","0","0","0","0","0","0","0","84","84","0","15","0","no","03/08/19 11:21:52","A simple template for the mouse-tracking paradigm","yes","Experiment-FT.osexp","C:\Users\Kristen\Documents\opPreviewExperiment-master\procedure","no","mono","no","24","no","black","no","yes","1050","legacy","68","15","C:/Users/Kristen/Documents/opPreviewExperiment-master/procedure/subject-5.csv","legacy","Kafkaesque Koffka","3.2.6","add","0","l","NA","NA","a","a","7340","NA","NA","20955","7340","2","1617","legacy","small","1024","2","48000","-16","experiment","8_2_add_true.jpg","5","odd","legacy","334213","NA","98998","NA","NA","3000","NA","3013","91657","334213","336803","23969","86597","3002","mousetracking operator preview effect","0","0","0","no","true","no","1680"
"neutral","undefined","1","undefined","undefined","white","no","legacy","legacy","legacy","0","relative","undefined","undefined","69","NA","0","0","0","0","0","0","0","85","85","0","15","0","no","03/08/19 11:21:52","A simple template for the mouse-tracking paradigm","yes","Experiment-FT.osexp","C:\Users\Kristen\Documents\opPreviewExperiment-master\procedure","no","mono","no","24","no","black","no","yes","1050","legacy","69","15","C:/Users/Kristen/Documents/opPreviewExperiment-master/procedure/subject-5.csv","legacy","Kafkaesque Koffka","3.2.6","add","0","a","NA","NA","a","a","7340","NA","NA","20955","7340","2","2162","legacy","small","1024","2","48000","-16","experiment","3_6_add_FNI.jpg","5","odd","legacy","336833","NA","98998","NA","NA","3000","NA","3013","91657","336833","339981","23969","86597","3002","mousetracking operator preview effect","0","0","0","no","false","no","1680"
"negative","undefined","1","undefined","undefined","white","no","legacy","legacy","legacy","0","relative","undefined","undefined","70","NA","0","0","0","0","0","0","0","86","86","0","15","0","no","03/08/19 11:21:52","A simple template for the mouse-tracking paradigm","yes","Experiment-FT.osexp","C:\Users\Kristen\Documents\opPreviewExperiment-master\procedure","no","mono","no","24","no","black","no","yes","1050","legacy","70","15","C:/Users/Kristen/Documents/opPreviewExperiment-master/procedure/subject-5.csv","legacy","Kafkaesque Koffka","3.2.6","add","0","l","NA","NA","a","a","7340","NA","NA","20955","7340","2","2912","legacy","large","1024","2","48000","-16","experiment","6_8_add_true.jpg","5","odd","legacy","340006","NA","98998","NA","NA","3000","NA","3013","91657","340006","344066","23969","86597","3002","mousetracking operator preview effect","0","0","0","no","true","no","1680"
"negative","undefined","1","undefined","undefined","white","no","legacy","legacy","legacy","0","relative","undefined","undefined","71","NA","0","0","0","0","0","0","0","87","87","0","15","0","no","03/08/19 11:21:52","A simple template for the mouse-tracking paradigm","yes","Experiment-FT.osexp","C:\Users\Kristen\Documents\opPreviewExperiment-master\procedure","no","mono","no","24","no","black","no","yes","1050","legacy","71","15","C:/Users/Kristen/Documents/opPreviewExperiment-master/procedure/subject-5.csv","legacy","Kafkaesque Koffka","3.2.6","add","0","a","NA","NA","a","a","7340","NA","NA","20955","7340","2","1473","legacy","large","1024","2","48000","-16","experiment","4_9_add_FNI.jpg","5","odd","legacy","344088","NA","98998","NA","NA","3000","NA","3013","91657","344088","346705","23969","86597","3002","mousetracking operator preview effect","0","0","0","no","false","no","1680"
"neutral","undefined","1","undefined","undefined","white","no","legacy","legacy","legacy","0","relative","undefined","undefined","72","NA","0","0","0","0","0","0","0","88","88","0","15","0","no","03/08/19 11:21:52","A simple template for the mouse-tracking paradigm","yes","Experiment-FT.osexp","C:\Users\Kristen\Documents\opPreviewExperiment-master\procedure","no","mono","no","24","no","black","no","yes","1050","legacy","72","15","C:/Users/Kristen/Documents/opPreviewExperiment-master/procedure/subject-5.csv","legacy","Kafkaesque Koffka","3.2.6","mult","0","l","NA","NA","a","a","7340","NA","NA","20955","7340","2","2295","legacy","large","1024","2","48000","-16","experiment","9_7_mult_true.jpg","5","odd","legacy","346733","NA","98998","NA","NA","3000","NA","3013","91657","346733","349991","23969","86597","3002","mousetracking operator preview effect","0","0","0","no","true","no","1680"
"negative","undefined","1","undefined","undefined","white","no","legacy","legacy","legacy","0","relative","undefined","undefined","73","NA","0","0","0","0","0","0","0","89","89","0","15","0","no","03/08/19 11:21:52","A simple template for the mouse-tracking paradigm","yes","Experiment-FT.osexp","C:\Users\Kristen\Documents\opPreviewExperiment-master\procedure","no","mono","no","24","no","black","no","yes","1050","legacy","73","15","C:/Users/Kristen/Documents/opPreviewExperiment-master/procedure/subject-5.csv","legacy","Kafkaesque Koffka","3.2.6","mult","0","l","NA","NA","a","a","7340","NA","NA","20955","7340","2","2180","legacy","large","1024","2","48000","-16","experiment","6_8_mult_true.jpg","5","odd","legacy","350015","NA","98998","NA","NA","3000","NA","3013","91657","350015","353344","23969","86597","3002","mousetracking operator preview effect","0","0","0","no","true","no","1680"
"negative","undefined","1","undefined","undefined","white","no","legacy","legacy","legacy","0","relative","undefined","undefined","74","NA","0","0","0","0","0","0","0","90","90","0","15","0","no","03/08/19 11:21:52","A simple template for the mouse-tracking paradigm","yes","Experiment-FT.osexp","C:\Users\Kristen\Documents\opPreviewExperiment-master\procedure","no","mono","no","24","no","black","no","yes","1050","legacy","74","15","C:/Users/Kristen/Documents/opPreviewExperiment-master/procedure/subject-5.csv","legacy","Kafkaesque Koffka","3.2.6","add","0","l","NA","NA","a","a","7340","NA","NA","20955","7340","2","1958","legacy","large","1024","2","48000","-16","experiment","8_4_add_true.jpg","5","odd","legacy","353358","NA","98998","NA","NA","3000","NA","3013","91657","353358","356459","23969","86597","3002","mousetracking operator preview effect","0","0","0","no","true","no","1680"
"negative","undefined","1","undefined","undefined","white","no","legacy","legacy","legacy","0","relative","undefined","undefined","75","NA","0","0","0","0","0","0","0","91","91","0","15","0","no","03/08/19 11:21:52","A simple template for the mouse-tracking paradigm","yes","Experiment-FT.osexp","C:\Users\Kristen\Documents\opPreviewExperiment-master\procedure","no","mono","no","24","no","black","no","yes","1050","legacy","75","15","C:/Users/Kristen/Documents/opPreviewExperiment-master/procedure/subject-5.csv","legacy","Kafkaesque Koffka","3.2.6","add","0","a","NA","NA","a","a","7340","NA","NA","20955","7340","2","1004","legacy","small","1024","2","48000","-16","experiment","8_2_add_FNI.jpg","5","odd","legacy","356479","NA","98998","NA","NA","3000","NA","3013","91657","356479","358609","23969","86597","3002","mousetracking operator preview effect","0","0","0","no","false","no","1680"
"neutral","undefined","1","undefined","undefined","white","no","legacy","legacy","legacy","0","relative","undefined","undefined","76","NA","0","0","0","0","0","0","0","92","92","0","15","0","no","03/08/19 11:21:52","A simple template for the mouse-tracking paradigm","yes","Experiment-FT.osexp","C:\Users\Kristen\Documents\opPreviewExperiment-master\procedure","no","mono","no","24","no","black","no","yes","1050","legacy","76","15","C:/Users/Kristen/Documents/opPreviewExperiment-master/procedure/subject-5.csv","legacy","Kafkaesque Koffka","3.2.6","add","0","l","NA","NA","a","a","7340","NA","NA","20955","7340","2","2587","legacy","large","1024","2","48000","-16","experiment","9_7_add_true.jpg","5","odd","legacy","358630","NA","98998","NA","NA","3000","NA","3013","91657","358630","362194","23969","86597","3002","mousetracking operator preview effect","0","0","0","no","true","no","1680"
"neutral","undefined","1","undefined","undefined","white","no","legacy","legacy","legacy","0","relative","undefined","undefined","77","NA","0","0","0","0","0","0","0","93","93","0","15","0","no","03/08/19 11:21:52","A simple template for the mouse-tracking paradigm","yes","Experiment-FT.osexp","C:\Users\Kristen\Documents\opPreviewExperiment-master\procedure","no","mono","no","24","no","black","no","yes","1050","legacy","77","15","C:/Users/Kristen/Documents/opPreviewExperiment-master/procedure/subject-5.csv","legacy","Kafkaesque Koffka","3.2.6","add","0","a","NA","NA","a","a","7340","NA","NA","20955","7340","2","2214","legacy","large","1024","2","48000","-16","experiment","9_7_add_FI.jpg","5","odd","legacy","362216","NA","98998","NA","NA","3000","NA","3013","91657","362216","365406","23969","86597","3002","mousetracking operator preview effect","0","0","0","no","false","no","1680"
"neutral","undefined","1","undefined","undefined","white","no","legacy","legacy","legacy","0","relative","undefined","undefined","78","NA","0","0","0","0","0","0","0","94","94","0","15","0","no","03/08/19 11:21:52","A simple template for the mouse-tracking paradigm","yes","Experiment-FT.osexp","C:\Users\Kristen\Documents\opPreviewExperiment-master\procedure","no","mono","no","24","no","black","no","yes","1050","legacy","78","15","C:/Users/Kristen/Documents/opPreviewExperiment-master/procedure/subject-5.csv","legacy","Kafkaesque Koffka","3.2.6","mult","0","a","NA","NA","a","a","7340","NA","NA","20955","7340","2","1890","legacy","small","1024","2","48000","-16","experiment","5_3_mult_FNI.jpg","5","odd","legacy","365426","NA","98998","NA","NA","3000","NA","3013","91657","365426","368282","23969","86597","3002","mousetracking operator preview effect","0","0","0","no","false","no","1680"
"neutral","undefined","1","undefined","undefined","white","no","legacy","legacy","legacy","0","relative","undefined","undefined","79","NA","0","0","0","0","0","0","0","95","95","0","15","0","no","03/08/19 11:21:52","A simple template for the mouse-tracking paradigm","yes","Experiment-FT.osexp","C:\Users\Kristen\Documents\opPreviewExperiment-master\procedure","no","mono","no","24","no","black","no","yes","1050","legacy","79","15","C:/Users/Kristen/Documents/opPreviewExperiment-master/procedure/subject-5.csv","legacy","Kafkaesque Koffka","3.2.6","add","0","a","NA","NA","a","a","7340","NA","NA","20955","7340","2","1887","legacy","large","1024","2","48000","-16","experiment","6_8_add_FI.jpg","5","odd","legacy","368302","NA","98998","NA","NA","3000","NA","3013","91657","368302","371179","23969","86597","3002","mousetracking operator preview effect","0","0","0","no","false","no","1680"
"negative","undefined","1","undefined","undefined","white","no","legacy","legacy","legacy","0","relative","undefined","undefined","80","NA","0","0","0","0","0","0","0","96","96","0","15","0","no","03/08/19 11:21:52","A simple template for the mouse-tracking paradigm","yes","Experiment-FT.osexp","C:\Users\Kristen\Documents\opPreviewExperiment-master\procedure","no","mono","no","24","no","black","no","yes","1050","legacy","80","15","C:/Users/Kristen/Documents/opPreviewExperiment-master/procedure/subject-5.csv","legacy","Kafkaesque Koffka","3.2.6","add","0","l","NA","NA","a","a","7340","NA","NA","20955","7340","2","1386","legacy","small","1024","2","48000","-16","experiment","8_2_add_true.jpg","5","odd","legacy","371209","NA","98998","NA","NA","3000","NA","3013","91657","371209","373744","23969","86597","3002","mousetracking operator preview effect","0","0","0","no","true","no","1680"
"neutral","undefined","1","undefined","undefined","white","no","legacy","legacy","legacy","0","relative","undefined","undefined","81","NA","0","0","0","0","0","0","0","97","97","0","15","0","no","03/08/19 11:21:52","A simple template for the mouse-tracking paradigm","yes","Experiment-FT.osexp","C:\Users\Kristen\Documents\opPreviewExperiment-master\procedure","no","mono","no","24","no","black","no","yes","1050","legacy","81","15","C:/Users/Kristen/Documents/opPreviewExperiment-master/procedure/subject-5.csv","legacy","Kafkaesque Koffka","3.2.6","add","0","l","NA","NA","a","a","7340","NA","NA","20955","7340","2","1174","legacy","small","1024","2","48000","-16","experiment","2_7_add_true.jpg","5","odd","legacy","373765","NA","98998","NA","NA","3000","NA","3013","91657","373765","375913","23969","86597","3002","mousetracking operator preview effect","0","0","0","no","true","no","1680"
"negative","undefined","1","undefined","undefined","white","no","legacy","legacy","legacy","0","relative","undefined","undefined","82","NA","0","0","0","0","0","0","0","98","98","0","15","0","no","03/08/19 11:21:52","A simple template for the mouse-tracking paradigm","yes","Experiment-FT.osexp","C:\Users\Kristen\Documents\opPreviewExperiment-master\procedure","no","mono","no","24","no","black","no","yes","1050","legacy","82","15","C:/Users/Kristen/Documents/opPreviewExperiment-master/procedure/subject-5.csv","legacy","Kafkaesque Koffka","3.2.6","add","0","a","NA","NA","a","a","7340","NA","NA","20955","7340","2","1632","legacy","small","1024","2","48000","-16","experiment","3_6_add_FNI.jpg","5","odd","legacy","375939","NA","98998","NA","NA","3000","NA","3013","91657","375939","378701","23969","86597","3002","mousetracking operator preview effect","0","0","0","no","false","no","1680"
"negative","undefined","0","undefined","undefined","white","no","legacy","legacy","legacy","0","relative","undefined","undefined","83","NA","0","0","0","0","0","0","0","99","99","0","15","0","no","03/08/19 11:21:52","A simple template for the mouse-tracking paradigm","yes","Experiment-FT.osexp","C:\Users\Kristen\Documents\opPreviewExperiment-master\procedure","no","mono","no","24","no","black","no","yes","1050","legacy","83","15","C:/Users/Kristen/Documents/opPreviewExperiment-master/procedure/subject-5.csv","legacy","Kafkaesque Koffka","3.2.6","mult","0","a","NA","NA","a","a","7340","NA","NA","20955","7340","2","1994","legacy","large","1024","2","48000","-16","experiment","8_4_mult_true.jpg","5","odd","legacy","378724","NA","98998","NA","NA","3000","NA","3013","91657","378724","382881","23969","86597","3002","mousetracking operator preview effect","0","0","0","no","true","no","1680"
"neutral","undefined","1","undefined","undefined","white","no","legacy","legacy","legacy","0","relative","undefined","undefined","84","NA","0","0","0","0","0","0","0","100","100","0","15","0","no","03/08/19 11:21:52","A simple template for the mouse-tracking paradigm","yes","Experiment-FT.osexp","C:\Users\Kristen\Documents\opPreviewExperiment-master\procedure","no","mono","no","24","no","black","no","yes","1050","legacy","84","15","C:/Users/Kristen/Documents/opPreviewExperiment-master/procedure/subject-5.csv","legacy","Kafkaesque Koffka","3.2.6","add","0","l","NA","NA","a","a","7340","NA","NA","20955","7340","2","2372","legacy","large","1024","2","48000","-16","experiment","8_4_add_true.jpg","5","odd","legacy","382913","NA","98998","NA","NA","3000","NA","3013","91657","382914","386266","23969","86597","3002","mousetracking operator preview effect","0","0","0","no","true","no","1680"
"neutral","undefined","1","undefined","undefined","white","no","legacy","legacy","legacy","0","relative","undefined","undefined","85","NA","0","0","0","0","0","0","0","101","101","0","15","0","no","03/08/19 11:21:52","A simple template for the mouse-tracking paradigm","yes","Experiment-FT.osexp","C:\Users\Kristen\Documents\opPreviewExperiment-master\procedure","no","mono","no","24","no","black","no","yes","1050","legacy","85","15","C:/Users/Kristen/Documents/opPreviewExperiment-master/procedure/subject-5.csv","legacy","Kafkaesque Koffka","3.2.6","add","0","l","NA","NA","a","a","7340","NA","NA","20955","7340","2","1405","legacy","small","1024","2","48000","-16","experiment","8_2_add_true.jpg","5","odd","legacy","386280","NA","98998","NA","NA","3000","NA","3013","91657","386280","388652","23969","86597","3002","mousetracking operator preview effect","0","0","0","no","true","no","1680"
"neutral","undefined","0","undefined","undefined","white","no","legacy","legacy","legacy","0","relative","undefined","undefined","86","NA","0","0","0","0","0","0","0","102","102","0","15","0","no","03/08/19 11:21:52","A simple template for the mouse-tracking paradigm","yes","Experiment-FT.osexp","C:\Users\Kristen\Documents\opPreviewExperiment-master\procedure","no","mono","no","24","no","black","no","yes","1050","legacy","86","15","C:/Users/Kristen/Documents/opPreviewExperiment-master/procedure/subject-5.csv","legacy","Kafkaesque Koffka","3.2.6","mult","0","l","NA","NA","a","a","7340","NA","NA","20955","7340","2","2153","legacy","large","1024","2","48000","-16","experiment","8_4_mult_FI.jpg","5","odd","legacy","388673","NA","98998","NA","NA","3000","NA","3013","91657","388673","392836","23969","86597","3002","mousetracking operator preview effect","0","0","0","no","false","no","1680"
"neutral","undefined","1","undefined","undefined","white","no","legacy","legacy","legacy","0","relative","undefined","undefined","87","NA","0","0","0","0","0","0","0","103","103","0","15","0","no","03/08/19 11:21:52","A simple template for the mouse-tracking paradigm","yes","Experiment-FT.osexp","C:\Users\Kristen\Documents\opPreviewExperiment-master\procedure","no","mono","no","24","no","black","no","yes","1050","legacy","87","15","C:/Users/Kristen/Documents/opPreviewExperiment-master/procedure/subject-5.csv","legacy","Kafkaesque Koffka","3.2.6","mult","0","l","NA","NA","a","a","7340","NA","NA","20955","7340","2","2571","legacy","large","1024","2","48000","-16","experiment","4_9_mult_true.jpg","5","odd","legacy","392874","NA","98998","NA","NA","3000","NA","3013","91657","392875","396428","23969","86597","3002","mousetracking operator preview effect","0","0","0","no","true","no","1680"
"neutral","undefined","1","undefined","undefined","white","no","legacy","legacy","legacy","0","relative","undefined","undefined","88","NA","0","0","0","0","0","0","0","104","104","0","15","0","no","03/08/19 11:21:52","A simple template for the mouse-tracking paradigm","yes","Experiment-FT.osexp","C:\Users\Kristen\Documents\opPreviewExperiment-master\procedure","no","mono","no","24","no","black","no","yes","1050","legacy","88","15","C:/Users/Kristen/Documents/opPreviewExperiment-master/procedure/subject-5.csv","legacy","Kafkaesque Koffka","3.2.6","mult","0","l","NA","NA","a","a","7340","NA","NA","20955","7340","2","1624","legacy","small","1024","2","48000","-16","experiment","8_2_mult_true.jpg","5","odd","legacy","396457","NA","98998","NA","NA","3000","NA","3013","91657","396457","399076","23969","86597","3002","mousetracking operator preview effect","0","0","0","no","true","no","1680"
"neutral","undefined","1","undefined","undefined","white","no","legacy","legacy","legacy","0","relative","undefined","undefined","89","NA","0","0","0","0","0","0","0","105","105","0","15","0","no","03/08/19 11:21:52","A simple template for the mouse-tracking paradigm","yes","Experiment-FT.osexp","C:\Users\Kristen\Documents\opPreviewExperiment-master\procedure","no","mono","no","24","no","black","no","yes","1050","legacy","89","15","C:/Users/Kristen/Documents/opPreviewExperiment-master/procedure/subject-5.csv","legacy","Kafkaesque Koffka","3.2.6","mult","0","a","NA","NA","a","a","7340","NA","NA","20955","7340","2","1715","legacy","small","1024","2","48000","-16","experiment","3_6_mult_FNI.jpg","5","odd","legacy","399105","NA","98998","NA","NA","3000","NA","3013","91657","399105","401819","23969","86597","3002","mousetracking operator preview effect","0","0","0","no","false","no","1680"
"neutral","undefined","1","undefined","undefined","white","no","legacy","legacy","legacy","0","relative","undefined","undefined","90","NA","0","0","0","0","0","0","0","106","106","0","15","0","no","03/08/19 11:21:52","A simple template for the mouse-tracking paradigm","yes","Experiment-FT.osexp","C:\Users\Kristen\Documents\opPreviewExperiment-master\procedure","no","mono","no","24","no","black","no","yes","1050","legacy","90","15","C:/Users/Kristen/Documents/opPreviewExperiment-master/procedure/subject-5.csv","legacy","Kafkaesque Koffka","3.2.6","mult","0","l","NA","NA","a","a","7340","NA","NA","20955","7340","2","2931","legacy","large","1024","2","48000","-16","experiment","8_4_mult_true.jpg","5","odd","legacy","401840","NA","98998","NA","NA","3000","NA","3013","91657","401840","405744","23969","86597","3002","mousetracking operator preview effect","0","0","0","no","true","no","1680"
"neutral","undefined","1","undefined","undefined","white","no","legacy","legacy","legacy","0","relative","undefined","undefined","91","NA","0","0","0","0","0","0","0","107","107","0","15","0","no","03/08/19 11:21:52","A simple template for the mouse-tracking paradigm","yes","Experiment-FT.osexp","C:\Users\Kristen\Documents\opPreviewExperiment-master\procedure","no","mono","no","24","no","black","no","yes","1050","legacy","91","15","C:/Users/Kristen/Documents/opPreviewExperiment-master/procedure/subject-5.csv","legacy","Kafkaesque Koffka","3.2.6","add","0","a","NA","NA","a","a","7340","NA","NA","20955","7340","2","2134","legacy","large","1024","2","48000","-16","experiment","6_8_add_FNI.jpg","5","odd","legacy","405769","NA","98998","NA","NA","3000","NA","3013","91657","405769","408888","23969","86597","3002","mousetracking operator preview effect","0","0","0","no","false","no","1680"
"negative","undefined","1","undefined","undefined","white","no","legacy","legacy","legacy","0","relative","undefined","undefined","92","NA","0","0","0","0","0","0","0","108","108","0","15","0","no","03/08/19 11:21:52","A simple template for the mouse-tracking paradigm","yes","Experiment-FT.osexp","C:\Users\Kristen\Documents\opPreviewExperiment-master\procedure","no","mono","no","24","no","black","no","yes","1050","legacy","92","15","C:/Users/Kristen/Documents/opPreviewExperiment-master/procedure/subject-5.csv","legacy","Kafkaesque Koffka","3.2.6","add","0","a","NA","NA","a","a","7340","NA","NA","20955","7340","2","2779","legacy","large","1024","2","48000","-16","experiment","6_8_add_FI.jpg","5","odd","legacy","408914","NA","98998","NA","NA","3000","NA","3013","91657","408914","412836","23969","86597","3002","mousetracking operator preview effect","0","0","0","no","false","no","1680"
"neutral","undefined","1","undefined","undefined","white","no","legacy","legacy","legacy","0","relative","undefined","undefined","93","NA","0","0","0","0","0","0","0","109","109","0","15","0","no","03/08/19 11:21:52","A simple template for the mouse-tracking paradigm","yes","Experiment-FT.osexp","C:\Users\Kristen\Documents\opPreviewExperiment-master\procedure","no","mono","no","24","no","black","no","yes","1050","legacy","93","15","C:/Users/Kristen/Documents/opPreviewExperiment-master/procedure/subject-5.csv","legacy","Kafkaesque Koffka","3.2.6","add","0","a","NA","NA","a","a","7340","NA","NA","20955","7340","2","2566","legacy","small","1024","2","48000","-16","experiment","2_7_add_FI.jpg","5","odd","legacy","412856","NA","98998","NA","NA","3000","NA","3013","91657","412856","416392","23969","86597","3002","mousetracking operator preview effect","0","0","0","no","false","no","1680"
