"SOAcondition","acc","accuracy","average_response_time","avg_rt","background","bidi","canvas_backend","clock_backend","color_backend","compensation","coordinates","correct","correct_instruction1","count_block1_sequence","count_block2_sequence","count_block_1","count_block_2","count_breakScreen","count_experiment","count_finish","count_instruction1","count_instruction2","count_keyboard_script","count_logger","count_practiceBlock","count_practice_sequence","count_setup_script","custom_cursor","datetime","description","disable_garbage_collection","experiment_file","experiment_path","font_bold","font_family","font_italic","font_size","font_underline","foreground","form_clicks","fullscreen","height","keyboard_backend","live_row","live_row_practiceBlock","logfile","mouse_backend","opensesame_codename","opensesame_version","operation","repeat_cycle","response","response_breakScreen","response_finish","response_instruction1","response_instruction2","response_time","response_time_breakScreen","response_time_finish","response_time_instruction1","response_time_instruction2","round_decimals","rt","sampler_backend","size","sound_buf_size","sound_channels","sound_freq","sound_sample_size","start","stimulus","subject_nr","subject_parity","synth_backend","time_block1_sequence","time_block2_sequence","time_block_1","time_block_2","time_breakScreen","time_experiment","time_finish","time_instruction1","time_instruction2","time_keyboard_script","time_logger","time_practiceBlock","time_practice_sequence","time_setup_script","title","total_correct","total_response_time","total_responses","transparent_variables","truth","uniform_coordinates","width"
"neutral","undefined","1","undefined","undefined","white","no","legacy","legacy","legacy","0","relative","undefined","undefined","NA","NA","0","0","0","0","0","0","0","0","0","0","0","0","no","03/08/19 09:27:03","A simple template for the mouse-tracking paradigm","yes","Experiment-FT.osexp","C:\Users\Kristen\Documents\opPreviewExperiment-master\procedure","no","mono","no","24","no","black","no","yes","1050","legacy","0","0","C:/Users/Kristen/Documents/opPreviewExperiment-master/procedure/subject-3.csv","legacy","Kafkaesque Koffka","3.2.6","mult","0","a","NA","NA","space","NA","6436","NA","NA","6436","NA","2","9076","legacy","NA","1024","2","48000","-16","experiment","0_3_mult_F.jpg","3","odd","legacy","NA","NA","NA","NA","NA","2397","NA","2412","NA","8852","18927","8849","8852","2399","mousetracking operator preview effect","0","0","0","no","false","no","1680"
"negative","undefined","0","undefined","undefined","white","no","legacy","legacy","legacy","0","relative","undefined","undefined","NA","NA","0","0","0","0","0","0","0","1","1","0","1","0","no","03/08/19 09:27:03","A simple template for the mouse-tracking paradigm","yes","Experiment-FT.osexp","C:\Users\Kristen\Documents\opPreviewExperiment-master\procedure","no","mono","no","24","no","black","no","yes","1050","legacy","1","1","C:/Users/Kristen/Documents/opPreviewExperiment-master/procedure/subject-3.csv","legacy","Kafkaesque Koffka","3.2.6","mult","0","a","NA","NA","space","NA","6436","NA","NA","6436","NA","2","1356","legacy","NA","1024","2","48000","-16","experiment","0_3_mult_T.jpg","3","odd","legacy","NA","NA","NA","NA","NA","2397","NA","2412","NA","18952","22486","8849","18952","2399","mousetracking operator preview effect","0","0","0","no","true","no","1680"
"negative","undefined","0","undefined","undefined","white","no","legacy","legacy","legacy","0","relative","undefined","undefined","NA","NA","0","0","0","0","0","0","0","2","2","0","2","0","no","03/08/19 09:27:03","A simple template for the mouse-tracking paradigm","yes","Experiment-FT.osexp","C:\Users\Kristen\Documents\opPreviewExperiment-master\procedure","no","mono","no","24","no","black","no","yes","1050","legacy","2","2","C:/Users/Kristen/Documents/opPreviewExperiment-master/procedure/subject-3.csv","legacy","Kafkaesque Koffka","3.2.6","add","0","a","NA","NA","space","NA","6436","NA","NA","6436","NA","2","2883","legacy","NA","1024","2","48000","-16","experiment","1_4_add_T.jpg","3","odd","legacy","NA","NA","NA","NA","NA","2397","NA","2412","NA","22518","27579","8849","22518","2399","mousetracking operator preview effect","0","0","0","no","true","no","1680"
"negative","undefined","1","undefined","undefined","white","no","legacy","legacy","legacy","0","relative","undefined","undefined","NA","NA","0","0","0","0","0","0","0","3","3","0","3","0","no","03/08/19 09:27:03","A simple template for the mouse-tracking paradigm","yes","Experiment-FT.osexp","C:\Users\Kristen\Documents\opPreviewExperiment-master\procedure","no","mono","no","24","no","black","no","yes","1050","legacy","3","3","C:/Users/Kristen/Documents/opPreviewExperiment-master/procedure/subject-3.csv","legacy","Kafkaesque Koffka","3.2.6","add","0","a","NA","NA","space","NA","6436","NA","NA","6436","NA","2","29075","legacy","NA","1024","2","48000","-16","experiment","1_4_add_F.jpg","3","odd","legacy","NA","NA","NA","NA","NA","2397","NA","2412","NA","27611","57814","8849","27611","2399","mousetracking operator preview effect","0","0","0","no","false","no","1680"
"neutral","undefined","1","undefined","undefined","white","no","legacy","legacy","legacy","0","relative","undefined","undefined","NA","NA","0","0","0","0","0","0","0","4","4","0","4","0","no","03/08/19 09:27:03","A simple template for the mouse-tracking paradigm","yes","Experiment-FT.osexp","C:\Users\Kristen\Documents\opPreviewExperiment-master\procedure","no","mono","no","24","no","black","no","yes","1050","legacy","4","4","C:/Users/Kristen/Documents/opPreviewExperiment-master/procedure/subject-3.csv","legacy","Kafkaesque Koffka","3.2.6","mult","0","a","NA","NA","space","NA","6436","NA","NA","6436","NA","2","11709","legacy","NA","1024","2","48000","-16","experiment","1_4_mult_F.jpg","3","odd","legacy","NA","NA","NA","NA","NA","2397","NA","2412","NA","57842","70524","8849","57842","2399","mousetracking operator preview effect","0","0","0","no","false","no","1680"
"neutral","undefined","1","undefined","undefined","white","no","legacy","legacy","legacy","0","relative","undefined","undefined","NA","NA","0","0","0","0","0","0","0","5","5","0","5","0","no","03/08/19 09:27:03","A simple template for the mouse-tracking paradigm","yes","Experiment-FT.osexp","C:\Users\Kristen\Documents\opPreviewExperiment-master\procedure","no","mono","no","24","no","black","no","yes","1050","legacy","5","5","C:/Users/Kristen/Documents/opPreviewExperiment-master/procedure/subject-3.csv","legacy","Kafkaesque Koffka","3.2.6","mult","0","l","NA","NA","space","NA","6436","NA","NA","6436","NA","2","1593","legacy","NA","1024","2","48000","-16","experiment","0_3_mult_T.jpg","3","odd","legacy","NA","NA","NA","NA","NA","2397","NA","2412","NA","70537","73094","8849","70537","2399","mousetracking operator preview effect","0","0","0","no","true","no","1680"
"neutral","undefined","1","undefined","undefined","white","no","legacy","legacy","legacy","0","relative","undefined","undefined","NA","NA","0","0","0","0","0","0","0","6","6","0","6","0","no","03/08/19 09:27:03","A simple template for the mouse-tracking paradigm","yes","Experiment-FT.osexp","C:\Users\Kristen\Documents\opPreviewExperiment-master\procedure","no","mono","no","24","no","black","no","yes","1050","legacy","6","6","C:/Users/Kristen/Documents/opPreviewExperiment-master/procedure/subject-3.csv","legacy","Kafkaesque Koffka","3.2.6","add","0","a","NA","NA","space","NA","6436","NA","NA","6436","NA","2","1322","legacy","NA","1024","2","48000","-16","experiment","1_4_add_F.jpg","3","odd","legacy","NA","NA","NA","NA","NA","2397","NA","2412","NA","73118","75401","8849","73118","2399","mousetracking operator preview effect","0","0","0","no","false","no","1680"
"neutral","undefined","1","undefined","undefined","white","no","legacy","legacy","legacy","0","relative","undefined","undefined","NA","NA","0","0","0","0","0","0","0","7","7","0","7","0","no","03/08/19 09:27:03","A simple template for the mouse-tracking paradigm","yes","Experiment-FT.osexp","C:\Users\Kristen\Documents\opPreviewExperiment-master\procedure","no","mono","no","24","no","black","no","yes","1050","legacy","7","7","C:/Users/Kristen/Documents/opPreviewExperiment-master/procedure/subject-3.csv","legacy","Kafkaesque Koffka","3.2.6","add","0","l","NA","NA","space","NA","6436","NA","NA","6436","NA","2","990","legacy","NA","1024","2","48000","-16","experiment","0_3_add_T.jpg","3","odd","legacy","NA","NA","NA","NA","NA","2397","NA","2412","NA","75415","77349","8849","75415","2399","mousetracking operator preview effect","0","0","0","no","true","no","1680"
"neutral","undefined","1","undefined","undefined","white","no","legacy","legacy","legacy","0","relative","undefined","undefined","NA","NA","0","0","0","0","0","0","0","8","8","0","8","0","no","03/08/19 09:27:03","A simple template for the mouse-tracking paradigm","yes","Experiment-FT.osexp","C:\Users\Kristen\Documents\opPreviewExperiment-master\procedure","no","mono","no","24","no","black","no","yes","1050","legacy","8","8","C:/Users/Kristen/Documents/opPreviewExperiment-master/procedure/subject-3.csv","legacy","Kafkaesque Koffka","3.2.6","add","0","l","NA","NA","space","NA","6436","NA","NA","6436","NA","2","1121","legacy","NA","1024","2","48000","-16","experiment","1_4_add_T.jpg","3","odd","legacy","NA","NA","NA","NA","NA","2397","NA","2412","NA","77363","79449","8849","77363","2399","mousetracking operator preview effect","0","0","0","no","true","no","1680"
"negative","undefined","1","undefined","undefined","white","no","legacy","legacy","legacy","0","relative","undefined","undefined","NA","NA","0","0","0","0","0","0","0","9","9","0","9","0","no","03/08/19 09:27:03","A simple template for the mouse-tracking paradigm","yes","Experiment-FT.osexp","C:\Users\Kristen\Documents\opPreviewExperiment-master\procedure","no","mono","no","24","no","black","no","yes","1050","legacy","9","9","C:/Users/Kristen/Documents/opPreviewExperiment-master/procedure/subject-3.csv","legacy","Kafkaesque Koffka","3.2.6","mult","0","a","NA","NA","space","NA","6436","NA","NA","6436","NA","2","1578","legacy","NA","1024","2","48000","-16","experiment","0_3_mult_F.jpg","3","odd","legacy","NA","NA","NA","NA","NA","2397","NA","2412","NA","79469","82159","8849","79469","2399","mousetracking operator preview effect","0","0","0","no","false","no","1680"
"negative","undefined","1","undefined","undefined","white","no","legacy","legacy","legacy","0","relative","undefined","undefined","NA","NA","0","0","0","0","0","0","0","10","10","0","10","0","no","03/08/19 09:27:03","A simple template for the mouse-tracking paradigm","yes","Experiment-FT.osexp","C:\Users\Kristen\Documents\opPreviewExperiment-master\procedure","no","mono","no","24","no","black","no","yes","1050","legacy","10","10","C:/Users/Kristen/Documents/opPreviewExperiment-master/procedure/subject-3.csv","legacy","Kafkaesque Koffka","3.2.6","mult","0","a","NA","NA","space","NA","6436","NA","NA","6436","NA","2","1491","legacy","NA","1024","2","48000","-16","experiment","1_4_mult_F.jpg","3","odd","legacy","NA","NA","NA","NA","NA","2397","NA","2412","NA","82181","84796","8849","82181","2399","mousetracking operator preview effect","0","0","0","no","false","no","1680"
"neutral","undefined","1","undefined","undefined","white","no","legacy","legacy","legacy","0","relative","undefined","undefined","NA","NA","0","0","0","0","0","0","0","11","11","0","11","0","no","03/08/19 09:27:03","A simple template for the mouse-tracking paradigm","yes","Experiment-FT.osexp","C:\Users\Kristen\Documents\opPreviewExperiment-master\procedure","no","mono","no","24","no","black","no","yes","1050","legacy","11","11","C:/Users/Kristen/Documents/opPreviewExperiment-master/procedure/subject-3.csv","legacy","Kafkaesque Koffka","3.2.6","mult","0","l","NA","NA","space","NA","6436","NA","NA","6436","NA","2","878","legacy","NA","1024","2","48000","-16","experiment","1_4_mult_T.jpg","3","odd","legacy","NA","NA","NA","NA","NA","2397","NA","2412","NA","84811","86656","8849","84811","2399","mousetracking operator preview effect","0","0","0","no","true","no","1680"
"neutral","undefined","1","undefined","undefined","white","no","legacy","legacy","legacy","0","relative","undefined","undefined","NA","NA","0","0","0","0","0","0","0","12","12","0","12","0","no","03/08/19 09:27:03","A simple template for the mouse-tracking paradigm","yes","Experiment-FT.osexp","C:\Users\Kristen\Documents\opPreviewExperiment-master\procedure","no","mono","no","24","no","black","no","yes","1050","legacy","12","12","C:/Users/Kristen/Documents/opPreviewExperiment-master/procedure/subject-3.csv","legacy","Kafkaesque Koffka","3.2.6","add","0","a","NA","NA","space","NA","6436","NA","NA","6436","NA","2","853","legacy","NA","1024","2","48000","-16","experiment","0_3_add_F.jpg","3","odd","legacy","NA","NA","NA","NA","NA","2397","NA","2412","NA","86669","88500","8849","86669","2399","mousetracking operator preview effect","0","0","0","no","false","no","1680"
"negative","undefined","1","undefined","undefined","white","no","legacy","legacy","legacy","0","relative","undefined","undefined","NA","NA","0","0","0","0","0","0","0","13","13","0","13","0","no","03/08/19 09:27:03","A simple template for the mouse-tracking paradigm","yes","Experiment-FT.osexp","C:\Users\Kristen\Documents\opPreviewExperiment-master\procedure","no","mono","no","24","no","black","no","yes","1050","legacy","13","13","C:/Users/Kristen/Documents/opPreviewExperiment-master/procedure/subject-3.csv","legacy","Kafkaesque Koffka","3.2.6","add","0","l","NA","NA","space","NA","6436","NA","NA","6436","NA","2","1102","legacy","NA","1024","2","48000","-16","experiment","0_3_add_T.jpg","3","odd","legacy","NA","NA","NA","NA","NA","2397","NA","2412","NA","88521","90747","8849","88521","2399","mousetracking operator preview effect","0","0","0","no","true","no","1680"
"negative","undefined","1","undefined","undefined","white","no","legacy","legacy","legacy","0","relative","undefined","undefined","NA","NA","0","0","0","0","0","0","0","14","14","0","14","0","no","03/08/19 09:27:03","A simple template for the mouse-tracking paradigm","yes","Experiment-FT.osexp","C:\Users\Kristen\Documents\opPreviewExperiment-master\procedure","no","mono","no","24","no","black","no","yes","1050","legacy","14","14","C:/Users/Kristen/Documents/opPreviewExperiment-master/procedure/subject-3.csv","legacy","Kafkaesque Koffka","3.2.6","mult","0","l","NA","NA","space","NA","6436","NA","NA","6436","NA","2","1004","legacy","NA","1024","2","48000","-16","experiment","1_4_mult_T.jpg","3","odd","legacy","NA","NA","NA","NA","NA","2397","NA","2412","NA","90774","92897","8849","90774","2399","mousetracking operator preview effect","0","0","0","no","true","no","1680"
"negative","undefined","1","undefined","undefined","white","no","legacy","legacy","legacy","0","relative","undefined","undefined","NA","NA","0","0","0","0","0","0","0","15","15","0","15","0","no","03/08/19 09:27:03","A simple template for the mouse-tracking paradigm","yes","Experiment-FT.osexp","C:\Users\Kristen\Documents\opPreviewExperiment-master\procedure","no","mono","no","24","no","black","no","yes","1050","legacy","15","15","C:/Users/Kristen/Documents/opPreviewExperiment-master/procedure/subject-3.csv","legacy","Kafkaesque Koffka","3.2.6","add","0","a","NA","NA","space","NA","6436","NA","NA","6436","NA","2","1281","legacy","NA","1024","2","48000","-16","experiment","0_3_add_F.jpg","3","odd","legacy","NA","NA","NA","NA","NA","2397","NA","2412","NA","92921","95316","8849","92921","2399","mousetracking operator preview effect","0","0","0","no","false","no","1680"
"negative","undefined","1","undefined","undefined","white","no","legacy","legacy","legacy","0","relative","undefined","undefined","0","NA","0","0","0","0","0","0","0","16","16","0","15","0","no","03/08/19 09:27:03","A simple template for the mouse-tracking paradigm","yes","Experiment-FT.osexp","C:\Users\Kristen\Documents\opPreviewExperiment-master\procedure","no","mono","no","24","no","black","no","yes","1050","legacy","0","15","C:/Users/Kristen/Documents/opPreviewExperiment-master/procedure/subject-3.csv","legacy","Kafkaesque Koffka","3.2.6","mult","0","l","NA","NA","space","a","9645","NA","NA","6436","9645","2","3129","legacy","small","1024","2","48000","-16","experiment","3_6_mult_true.jpg","3","odd","legacy","104982","NA","104978","NA","NA","2397","NA","2412","95333","104982","109256","8849","92921","2399","mousetracking operator preview effect","0","0","0","no","true","no","1680"
"negative","undefined","1","undefined","undefined","white","no","legacy","legacy","legacy","0","relative","undefined","undefined","1","NA","0","0","0","0","0","0","0","17","17","0","15","0","no","03/08/19 09:27:03","A simple template for the mouse-tracking paradigm","yes","Experiment-FT.osexp","C:\Users\Kristen\Documents\opPreviewExperiment-master\procedure","no","mono","no","24","no","black","no","yes","1050","legacy","1","15","C:/Users/Kristen/Documents/opPreviewExperiment-master/procedure/subject-3.csv","legacy","Kafkaesque Koffka","3.2.6","mult","0","l","NA","NA","space","a","9645","NA","NA","6436","9645","2","1452","legacy","large","1024","2","48000","-16","experiment","6_8_mult_true.jpg","3","odd","legacy","109272","NA","104978","NA","NA","2397","NA","2412","95333","109272","111834","8849","92921","2399","mousetracking operator preview effect","0","0","0","no","true","no","1680"
"negative","undefined","1","undefined","undefined","white","no","legacy","legacy","legacy","0","relative","undefined","undefined","2","NA","0","0","0","0","0","0","0","18","18","0","15","0","no","03/08/19 09:27:03","A simple template for the mouse-tracking paradigm","yes","Experiment-FT.osexp","C:\Users\Kristen\Documents\opPreviewExperiment-master\procedure","no","mono","no","24","no","black","no","yes","1050","legacy","2","15","C:/Users/Kristen/Documents/opPreviewExperiment-master/procedure/subject-3.csv","legacy","Kafkaesque Koffka","3.2.6","mult","0","a","NA","NA","space","a","9645","NA","NA","6436","9645","2","1095","legacy","small","1024","2","48000","-16","experiment","2_7_mult_FNI.jpg","3","odd","legacy","111887","NA","104978","NA","NA","2397","NA","2412","95333","111888","114112","8849","92921","2399","mousetracking operator preview effect","0","0","0","no","false","no","1680"
"neutral","undefined","1","undefined","undefined","white","no","legacy","legacy","legacy","0","relative","undefined","undefined","3","NA","0","0","0","0","0","0","0","19","19","0","15","0","no","03/08/19 09:27:03","A simple template for the mouse-tracking paradigm","yes","Experiment-FT.osexp","C:\Users\Kristen\Documents\opPreviewExperiment-master\procedure","no","mono","no","24","no","black","no","yes","1050","legacy","3","15","C:/Users/Kristen/Documents/opPreviewExperiment-master/procedure/subject-3.csv","legacy","Kafkaesque Koffka","3.2.6","add","0","l","NA","NA","space","a","9645","NA","NA","6436","9645","2","2306","legacy","large","1024","2","48000","-16","experiment","6_8_add_true.jpg","3","odd","legacy","114135","NA","104978","NA","NA","2397","NA","2412","95333","114135","117391","8849","92921","2399","mousetracking operator preview effect","0","0","0","no","true","no","1680"
"negative","undefined","1","undefined","undefined","white","no","legacy","legacy","legacy","0","relative","undefined","undefined","4","NA","0","0","0","0","0","0","0","20","20","0","15","0","no","03/08/19 09:27:03","A simple template for the mouse-tracking paradigm","yes","Experiment-FT.osexp","C:\Users\Kristen\Documents\opPreviewExperiment-master\procedure","no","mono","no","24","no","black","no","yes","1050","legacy","4","15","C:/Users/Kristen/Documents/opPreviewExperiment-master/procedure/subject-3.csv","legacy","Kafkaesque Koffka","3.2.6","mult","0","l","NA","NA","space","a","9645","NA","NA","6436","9645","2","1227","legacy","small","1024","2","48000","-16","experiment","8_2_mult_true.jpg","3","odd","legacy","117410","NA","104978","NA","NA","2397","NA","2412","95333","117410","119745","8849","92921","2399","mousetracking operator preview effect","0","0","0","no","true","no","1680"
"neutral","undefined","1","undefined","undefined","white","no","legacy","legacy","legacy","0","relative","undefined","undefined","5","NA","0","0","0","0","0","0","0","21","21","0","15","0","no","03/08/19 09:27:03","A simple template for the mouse-tracking paradigm","yes","Experiment-FT.osexp","C:\Users\Kristen\Documents\opPreviewExperiment-master\procedure","no","mono","no","24","no","black","no","yes","1050","legacy","5","15","C:/Users/Kristen/Documents/opPreviewExperiment-master/procedure/subject-3.csv","legacy","Kafkaesque Koffka","3.2.6","add","0","a","NA","NA","space","a","9645","NA","NA","6436","9645","2","1456","legacy","small","1024","2","48000","-16","experiment","3_6_add_FI.jpg","3","odd","legacy","119778","NA","104978","NA","NA","2397","NA","2412","95333","119778","122187","8849","92921","2399","mousetracking operator preview effect","0","0","0","no","false","no","1680"
"neutral","undefined","1","undefined","undefined","white","no","legacy","legacy","legacy","0","relative","undefined","undefined","6","NA","0","0","0","0","0","0","0","22","22","0","15","0","no","03/08/19 09:27:03","A simple template for the mouse-tracking paradigm","yes","Experiment-FT.osexp","C:\Users\Kristen\Documents\opPreviewExperiment-master\procedure","no","mono","no","24","no","black","no","yes","1050","legacy","6","15","C:/Users/Kristen/Documents/opPreviewExperiment-master/procedure/subject-3.csv","legacy","Kafkaesque Koffka","3.2.6","add","0","a","NA","NA","space","a","9645","NA","NA","6436","9645","2","2127","legacy","large","1024","2","48000","-16","experiment","6_8_add_FI.jpg","3","odd","legacy","122203","NA","104978","NA","NA","2397","NA","2412","95333","122203","125278","8849","92921","2399","mousetracking operator preview effect","0","0","0","no","false","no","1680"
"neutral","undefined","1","undefined","undefined","white","no","legacy","legacy","legacy","0","relative","undefined","undefined","7","NA","0","0","0","0","0","0","0","23","23","0","15","0","no","03/08/19 09:27:03","A simple template for the mouse-tracking paradigm","yes","Experiment-FT.osexp","C:\Users\Kristen\Documents\opPreviewExperiment-master\procedure","no","mono","no","24","no","black","no","yes","1050","legacy","7","15","C:/Users/Kristen/Documents/opPreviewExperiment-master/procedure/subject-3.csv","legacy","Kafkaesque Koffka","3.2.6","mult","0","l","NA","NA","space","a","9645","NA","NA","6436","9645","2","2965","legacy","large","1024","2","48000","-16","experiment","9_7_mult_true.jpg","3","odd","legacy","125296","NA","104978","NA","NA","2397","NA","2412","95333","125297","129208","8849","92921","2399","mousetracking operator preview effect","0","0","0","no","true","no","1680"
"neutral","undefined","1","undefined","undefined","white","no","legacy","legacy","legacy","0","relative","undefined","undefined","8","NA","0","0","0","0","0","0","0","24","24","0","15","0","no","03/08/19 09:27:03","A simple template for the mouse-tracking paradigm","yes","Experiment-FT.osexp","C:\Users\Kristen\Documents\opPreviewExperiment-master\procedure","no","mono","no","24","no","black","no","yes","1050","legacy","8","15","C:/Users/Kristen/Documents/opPreviewExperiment-master/procedure/subject-3.csv","legacy","Kafkaesque Koffka","3.2.6","mult","0","a","NA","NA","space","a","9645","NA","NA","6436","9645","2","1495","legacy","small","1024","2","48000","-16","experiment","8_2_mult_FI.jpg","3","odd","legacy","129225","NA","104978","NA","NA","2397","NA","2412","95333","129225","131667","8849","92921","2399","mousetracking operator preview effect","0","0","0","no","false","no","1680"
"neutral","undefined","1","undefined","undefined","white","no","legacy","legacy","legacy","0","relative","undefined","undefined","9","NA","0","0","0","0","0","0","0","25","25","0","15","0","no","03/08/19 09:27:03","A simple template for the mouse-tracking paradigm","yes","Experiment-FT.osexp","C:\Users\Kristen\Documents\opPreviewExperiment-master\procedure","no","mono","no","24","no","black","no","yes","1050","legacy","9","15","C:/Users/Kristen/Documents/opPreviewExperiment-master/procedure/subject-3.csv","legacy","Kafkaesque Koffka","3.2.6","mult","0","l","NA","NA","space","a","9645","NA","NA","6436","9645","2","1226","legacy","small","1024","2","48000","-16","experiment","3_6_mult_true.jpg","3","odd","legacy","131682","NA","104978","NA","NA","2397","NA","2412","95333","131682","133869","8849","92921","2399","mousetracking operator preview effect","0","0","0","no","true","no","1680"
"neutral","undefined","1","undefined","undefined","white","no","legacy","legacy","legacy","0","relative","undefined","undefined","10","NA","0","0","0","0","0","0","0","26","26","0","15","0","no","03/08/19 09:27:03","A simple template for the mouse-tracking paradigm","yes","Experiment-FT.osexp","C:\Users\Kristen\Documents\opPreviewExperiment-master\procedure","no","mono","no","24","no","black","no","yes","1050","legacy","10","15","C:/Users/Kristen/Documents/opPreviewExperiment-master/procedure/subject-3.csv","legacy","Kafkaesque Koffka","3.2.6","mult","0","a","NA","NA","space","a","9645","NA","NA","6436","9645","2","1446","legacy","large","1024","2","48000","-16","experiment","4_9_mult_FI.jpg","3","odd","legacy","133894","NA","104978","NA","NA","2397","NA","2412","95333","133894","136289","8849","92921","2399","mousetracking operator preview effect","0","0","0","no","false","no","1680"
"neutral","undefined","1","undefined","undefined","white","no","legacy","legacy","legacy","0","relative","undefined","undefined","11","NA","0","0","0","0","0","0","0","27","27","0","15","0","no","03/08/19 09:27:03","A simple template for the mouse-tracking paradigm","yes","Experiment-FT.osexp","C:\Users\Kristen\Documents\opPreviewExperiment-master\procedure","no","mono","no","24","no","black","no","yes","1050","legacy","11","15","C:/Users/Kristen/Documents/opPreviewExperiment-master/procedure/subject-3.csv","legacy","Kafkaesque Koffka","3.2.6","add","0","a","NA","NA","space","a","9645","NA","NA","6436","9645","2","1520","legacy","large","1024","2","48000","-16","experiment","9_7_add_FI.jpg","3","odd","legacy","136311","NA","104978","NA","NA","2397","NA","2412","95333","136311","138774","8849","92921","2399","mousetracking operator preview effect","0","0","0","no","false","no","1680"
"negative","undefined","0","undefined","undefined","white","no","legacy","legacy","legacy","0","relative","undefined","undefined","12","NA","0","0","0","0","0","0","0","28","28","0","15","0","no","03/08/19 09:27:03","A simple template for the mouse-tracking paradigm","yes","Experiment-FT.osexp","C:\Users\Kristen\Documents\opPreviewExperiment-master\procedure","no","mono","no","24","no","black","no","yes","1050","legacy","12","15","C:/Users/Kristen/Documents/opPreviewExperiment-master/procedure/subject-3.csv","legacy","Kafkaesque Koffka","3.2.6","mult","0","l","NA","NA","space","a","9645","NA","NA","6436","9645","2","1406","legacy","large","1024","2","48000","-16","experiment","8_4_mult_FI.jpg","3","odd","legacy","138798","NA","104978","NA","NA","2397","NA","2412","95333","138798","142327","8849","92921","2399","mousetracking operator preview effect","0","0","0","no","false","no","1680"
"neutral","undefined","1","undefined","undefined","white","no","legacy","legacy","legacy","0","relative","undefined","undefined","13","NA","0","0","0","0","0","0","0","29","29","0","15","0","no","03/08/19 09:27:03","A simple template for the mouse-tracking paradigm","yes","Experiment-FT.osexp","C:\Users\Kristen\Documents\opPreviewExperiment-master\procedure","no","mono","no","24","no","black","no","yes","1050","legacy","13","15","C:/Users/Kristen/Documents/opPreviewExperiment-master/procedure/subject-3.csv","legacy","Kafkaesque Koffka","3.2.6","add","0","a","NA","NA","space","a","9645","NA","NA","6436","9645","2","2906","legacy","small","1024","2","48000","-16","experiment","8_2_add_FNI.jpg","3","odd","legacy","142346","NA","104978","NA","NA","2397","NA","2412","95333","142346","146218","8849","92921","2399","mousetracking operator preview effect","0","0","0","no","false","no","1680"
"negative","undefined","1","undefined","undefined","white","no","legacy","legacy","legacy","0","relative","undefined","undefined","14","NA","0","0","0","0","0","0","0","30","30","0","15","0","no","03/08/19 09:27:03","A simple template for the mouse-tracking paradigm","yes","Experiment-FT.osexp","C:\Users\Kristen\Documents\opPreviewExperiment-master\procedure","no","mono","no","24","no","black","no","yes","1050","legacy","14","15","C:/Users/Kristen/Documents/opPreviewExperiment-master/procedure/subject-3.csv","legacy","Kafkaesque Koffka","3.2.6","mult","0","l","NA","NA","space","a","9645","NA","NA","6436","9645","2","2497","legacy","large","1024","2","48000","-16","experiment","4_9_mult_true.jpg","3","odd","legacy","146244","NA","104978","NA","NA","2397","NA","2412","95333","146244","149885","8849","92921","2399","mousetracking operator preview effect","0","0","0","no","true","no","1680"
"neutral","undefined","1","undefined","undefined","white","no","legacy","legacy","legacy","0","relative","undefined","undefined","15","NA","0","0","0","0","0","0","0","31","31","0","15","0","no","03/08/19 09:27:03","A simple template for the mouse-tracking paradigm","yes","Experiment-FT.osexp","C:\Users\Kristen\Documents\opPreviewExperiment-master\procedure","no","mono","no","24","no","black","no","yes","1050","legacy","15","15","C:/Users/Kristen/Documents/opPreviewExperiment-master/procedure/subject-3.csv","legacy","Kafkaesque Koffka","3.2.6","add","0","a","NA","NA","space","a","9645","NA","NA","6436","9645","2","1274","legacy","small","1024","2","48000","-16","experiment","2_7_add_FNI.jpg","3","odd","legacy","150092","NA","104978","NA","NA","2397","NA","2412","95333","150092","152335","8849","92921","2399","mousetracking operator preview effect","0","0","0","no","false","no","1680"
"neutral","undefined","1","undefined","undefined","white","no","legacy","legacy","legacy","0","relative","undefined","undefined","16","NA","0","0","0","0","0","0","0","32","32","0","15","0","no","03/08/19 09:27:03","A simple template for the mouse-tracking paradigm","yes","Experiment-FT.osexp","C:\Users\Kristen\Documents\opPreviewExperiment-master\procedure","no","mono","no","24","no","black","no","yes","1050","legacy","16","15","C:/Users/Kristen/Documents/opPreviewExperiment-master/procedure/subject-3.csv","legacy","Kafkaesque Koffka","3.2.6","mult","0","l","NA","NA","space","a","9645","NA","NA","6436","9645","2","1459","legacy","small","1024","2","48000","-16","experiment","5_3_mult_true.jpg","3","odd","legacy","152447","NA","104978","NA","NA","2397","NA","2412","95333","152447","154887","8849","92921","2399","mousetracking operator preview effect","0","0","0","no","true","no","1680"
"neutral","undefined","1","undefined","undefined","white","no","legacy","legacy","legacy","0","relative","undefined","undefined","17","NA","0","0","0","0","0","0","0","33","33","0","15","0","no","03/08/19 09:27:03","A simple template for the mouse-tracking paradigm","yes","Experiment-FT.osexp","C:\Users\Kristen\Documents\opPreviewExperiment-master\procedure","no","mono","no","24","no","black","no","yes","1050","legacy","17","15","C:/Users/Kristen/Documents/opPreviewExperiment-master/procedure/subject-3.csv","legacy","Kafkaesque Koffka","3.2.6","mult","0","a","NA","NA","space","a","9645","NA","NA","6436","9645","2","2318","legacy","large","1024","2","48000","-16","experiment","4_9_mult_FNI.jpg","3","odd","legacy","154900","NA","104978","NA","NA","2397","NA","2412","95333","154900","158199","8849","92921","2399","mousetracking operator preview effect","0","0","0","no","false","no","1680"
"negative","undefined","1","undefined","undefined","white","no","legacy","legacy","legacy","0","relative","undefined","undefined","18","NA","0","0","0","0","0","0","0","34","34","0","15","0","no","03/08/19 09:27:03","A simple template for the mouse-tracking paradigm","yes","Experiment-FT.osexp","C:\Users\Kristen\Documents\opPreviewExperiment-master\procedure","no","mono","no","24","no","black","no","yes","1050","legacy","18","15","C:/Users/Kristen/Documents/opPreviewExperiment-master/procedure/subject-3.csv","legacy","Kafkaesque Koffka","3.2.6","mult","0","a","NA","NA","space","a","9645","NA","NA","6436","9645","2","2056","legacy","large","1024","2","48000","-16","experiment","4_9_mult_FNI.jpg","3","odd","legacy","158219","NA","104978","NA","NA","2397","NA","2412","95333","158219","161389","8849","92921","2399","mousetracking operator preview effect","0","0","0","no","false","no","1680"
"neutral","undefined","1","undefined","undefined","white","no","legacy","legacy","legacy","0","relative","undefined","undefined","19","NA","0","0","0","0","0","0","0","35","35","0","15","0","no","03/08/19 09:27:03","A simple template for the mouse-tracking paradigm","yes","Experiment-FT.osexp","C:\Users\Kristen\Documents\opPreviewExperiment-master\procedure","no","mono","no","24","no","black","no","yes","1050","legacy","19","15","C:/Users/Kristen/Documents/opPreviewExperiment-master/procedure/subject-3.csv","legacy","Kafkaesque Koffka","3.2.6","mult","0","a","NA","NA","space","a","9645","NA","NA","6436","9645","2","1478","legacy","small","1024","2","48000","-16","experiment","3_6_mult_FI.jpg","3","odd","legacy","161410","NA","104978","NA","NA","2397","NA","2412","95333","161410","163866","8849","92921","2399","mousetracking operator preview effect","0","0","0","no","false","no","1680"
"negative","undefined","1","undefined","undefined","white","no","legacy","legacy","legacy","0","relative","undefined","undefined","20","NA","0","0","0","0","0","0","0","36","36","0","15","0","no","03/08/19 09:27:03","A simple template for the mouse-tracking paradigm","yes","Experiment-FT.osexp","C:\Users\Kristen\Documents\opPreviewExperiment-master\procedure","no","mono","no","24","no","black","no","yes","1050","legacy","20","15","C:/Users/Kristen/Documents/opPreviewExperiment-master/procedure/subject-3.csv","legacy","Kafkaesque Koffka","3.2.6","mult","0","l","NA","NA","space","a","9645","NA","NA","6436","9645","2","1459","legacy","small","1024","2","48000","-16","experiment","3_6_mult_true.jpg","3","odd","legacy","163886","NA","104978","NA","NA","2397","NA","2412","95333","163886","166467","8849","92921","2399","mousetracking operator preview effect","0","0","0","no","true","no","1680"
"negative","undefined","1","undefined","undefined","white","no","legacy","legacy","legacy","0","relative","undefined","undefined","21","NA","0","0","0","0","0","0","0","37","37","0","15","0","no","03/08/19 09:27:03","A simple template for the mouse-tracking paradigm","yes","Experiment-FT.osexp","C:\Users\Kristen\Documents\opPreviewExperiment-master\procedure","no","mono","no","24","no","black","no","yes","1050","legacy","21","15","C:/Users/Kristen/Documents/opPreviewExperiment-master/procedure/subject-3.csv","legacy","Kafkaesque Koffka","3.2.6","add","0","l","NA","NA","space","a","9645","NA","NA","6436","9645","2","1603","legacy","large","1024","2","48000","-16","experiment","4_9_add_true.jpg","3","odd","legacy","166482","NA","104978","NA","NA","2397","NA","2412","95333","166482","169229","8849","92921","2399","mousetracking operator preview effect","0","0","0","no","true","no","1680"
"neutral","undefined","0","undefined","undefined","white","no","legacy","legacy","legacy","0","relative","undefined","undefined","22","NA","0","0","0","0","0","0","0","38","38","0","15","0","no","03/08/19 09:27:03","A simple template for the mouse-tracking paradigm","yes","Experiment-FT.osexp","C:\Users\Kristen\Documents\opPreviewExperiment-master\procedure","no","mono","no","24","no","black","no","yes","1050","legacy","22","15","C:/Users/Kristen/Documents/opPreviewExperiment-master/procedure/subject-3.csv","legacy","Kafkaesque Koffka","3.2.6","mult","0","l","NA","NA","space","a","9645","NA","NA","6436","9645","2","3869","legacy","large","1024","2","48000","-16","experiment","9_7_mult_FNI.jpg","3","odd","legacy","169250","NA","104978","NA","NA","2397","NA","2412","95333","169250","175098","8849","92921","2399","mousetracking operator preview effect","0","0","0","no","false","no","1680"
"neutral","undefined","1","undefined","undefined","white","no","legacy","legacy","legacy","0","relative","undefined","undefined","23","NA","0","0","0","0","0","0","0","39","39","0","15","0","no","03/08/19 09:27:03","A simple template for the mouse-tracking paradigm","yes","Experiment-FT.osexp","C:\Users\Kristen\Documents\opPreviewExperiment-master\procedure","no","mono","no","24","no","black","no","yes","1050","legacy","23","15","C:/Users/Kristen/Documents/opPreviewExperiment-master/procedure/subject-3.csv","legacy","Kafkaesque Koffka","3.2.6","mult","0","a","NA","NA","space","a","9645","NA","NA","6436","9645","2","4748","legacy","small","1024","2","48000","-16","experiment","8_2_mult_FNI.jpg","3","odd","legacy","175124","NA","104978","NA","NA","2397","NA","2412","95333","175124","180838","8849","92921","2399","mousetracking operator preview effect","0","0","0","no","false","no","1680"
"neutral","undefined","1","undefined","undefined","white","no","legacy","legacy","legacy","0","relative","undefined","undefined","24","NA","0","0","0","0","0","0","0","40","40","0","15","0","no","03/08/19 09:27:03","A simple template for the mouse-tracking paradigm","yes","Experiment-FT.osexp","C:\Users\Kristen\Documents\opPreviewExperiment-master\procedure","no","mono","no","24","no","black","no","yes","1050","legacy","24","15","C:/Users/Kristen/Documents/opPreviewExperiment-master/procedure/subject-3.csv","legacy","Kafkaesque Koffka","3.2.6","mult","0","a","NA","NA","space","a","9645","NA","NA","6436","9645","2","1180","legacy","small","1024","2","48000","-16","experiment","5_3_mult_FNI.jpg","3","odd","legacy","180866","NA","104978","NA","NA","2397","NA","2412","95333","180866","183024","8849","92921","2399","mousetracking operator preview effect","0","0","0","no","false","no","1680"
"negative","undefined","1","undefined","undefined","white","no","legacy","legacy","legacy","0","relative","undefined","undefined","25","NA","0","0","0","0","0","0","0","41","41","0","15","0","no","03/08/19 09:27:03","A simple template for the mouse-tracking paradigm","yes","Experiment-FT.osexp","C:\Users\Kristen\Documents\opPreviewExperiment-master\procedure","no","mono","no","24","no","black","no","yes","1050","legacy","25","15","C:/Users/Kristen/Documents/opPreviewExperiment-master/procedure/subject-3.csv","legacy","Kafkaesque Koffka","3.2.6","mult","0","a","NA","NA","space","a","9645","NA","NA","6436","9645","2","2151","legacy","large","1024","2","48000","-16","experiment","6_8_mult_FNI.jpg","3","odd","legacy","183051","NA","104978","NA","NA","2397","NA","2412","95333","183051","186346","8849","92921","2399","mousetracking operator preview effect","0","0","0","no","false","no","1680"
"negative","undefined","1","undefined","undefined","white","no","legacy","legacy","legacy","0","relative","undefined","undefined","26","NA","0","0","0","0","0","0","0","42","42","0","15","0","no","03/08/19 09:27:03","A simple template for the mouse-tracking paradigm","yes","Experiment-FT.osexp","C:\Users\Kristen\Documents\opPreviewExperiment-master\procedure","no","mono","no","24","no","black","no","yes","1050","legacy","26","15","C:/Users/Kristen/Documents/opPreviewExperiment-master/procedure/subject-3.csv","legacy","Kafkaesque Koffka","3.2.6","add","0","l","NA","NA","space","a","9645","NA","NA","6436","9645","2","1402","legacy","large","1024","2","48000","-16","experiment","6_8_add_true.jpg","3","odd","legacy","186371","NA","104978","NA","NA","2397","NA","2412","95333","186371","188907","8849","92921","2399","mousetracking operator preview effect","0","0","0","no","true","no","1680"
"neutral","undefined","1","undefined","undefined","white","no","legacy","legacy","legacy","0","relative","undefined","undefined","27","NA","0","0","0","0","0","0","0","43","43","0","15","0","no","03/08/19 09:27:03","A simple template for the mouse-tracking paradigm","yes","Experiment-FT.osexp","C:\Users\Kristen\Documents\opPreviewExperiment-master\procedure","no","mono","no","24","no","black","no","yes","1050","legacy","27","15","C:/Users/Kristen/Documents/opPreviewExperiment-master/procedure/subject-3.csv","legacy","Kafkaesque Koffka","3.2.6","add","0","a","NA","NA","space","a","9645","NA","NA","6436","9645","2","1070","legacy","large","1024","2","48000","-16","experiment","6_8_add_FNI.jpg","3","odd","legacy","188934","NA","104978","NA","NA","2397","NA","2412","95333","188934","190986","8849","92921","2399","mousetracking operator preview effect","0","0","0","no","false","no","1680"
"neutral","undefined","1","undefined","undefined","white","no","legacy","legacy","legacy","0","relative","undefined","undefined","28","NA","0","0","0","0","0","0","0","44","44","0","15","0","no","03/08/19 09:27:03","A simple template for the mouse-tracking paradigm","yes","Experiment-FT.osexp","C:\Users\Kristen\Documents\opPreviewExperiment-master\procedure","no","mono","no","24","no","black","no","yes","1050","legacy","28","15","C:/Users/Kristen/Documents/opPreviewExperiment-master/procedure/subject-3.csv","legacy","Kafkaesque Koffka","3.2.6","mult","0","l","NA","NA","space","a","9645","NA","NA","6436","9645","2","1305","legacy","small","1024","2","48000","-16","experiment","8_2_mult_true.jpg","3","odd","legacy","191007","NA","104978","NA","NA","2397","NA","2412","95333","191007","193278","8849","92921","2399","mousetracking operator preview effect","0","0","0","no","true","no","1680"
"negative","undefined","1","undefined","undefined","white","no","legacy","legacy","legacy","0","relative","undefined","undefined","29","NA","0","0","0","0","0","0","0","45","45","0","15","0","no","03/08/19 09:27:03","A simple template for the mouse-tracking paradigm","yes","Experiment-FT.osexp","C:\Users\Kristen\Documents\opPreviewExperiment-master\procedure","no","mono","no","24","no","black","no","yes","1050","legacy","29","15","C:/Users/Kristen/Documents/opPreviewExperiment-master/procedure/subject-3.csv","legacy","Kafkaesque Koffka","3.2.6","mult","0","a","NA","NA","space","a","9645","NA","NA","6436","9645","2","963","legacy","small","1024","2","48000","-16","experiment","5_3_mult_FNI.jpg","3","odd","legacy","193299","NA","104978","NA","NA","2397","NA","2412","95333","193299","195390","8849","92921","2399","mousetracking operator preview effect","0","0","0","no","false","no","1680"
"negative","undefined","1","undefined","undefined","white","no","legacy","legacy","legacy","0","relative","undefined","undefined","30","NA","0","0","0","0","0","0","0","46","46","0","15","0","no","03/08/19 09:27:03","A simple template for the mouse-tracking paradigm","yes","Experiment-FT.osexp","C:\Users\Kristen\Documents\opPreviewExperiment-master\procedure","no","mono","no","24","no","black","no","yes","1050","legacy","30","15","C:/Users/Kristen/Documents/opPreviewExperiment-master/procedure/subject-3.csv","legacy","Kafkaesque Koffka","3.2.6","mult","0","a","NA","NA","space","a","9645","NA","NA","6436","9645","2","1670","legacy","large","1024","2","48000","-16","experiment","9_7_mult_FI.jpg","3","odd","legacy","195413","NA","104978","NA","NA","2397","NA","2412","95333","195413","198186","8849","92921","2399","mousetracking operator preview effect","0","0","0","no","false","no","1680"
"neutral","undefined","1","undefined","undefined","white","no","legacy","legacy","legacy","0","relative","undefined","undefined","31","NA","0","0","0","0","0","0","0","47","47","0","15","0","no","03/08/19 09:27:03","A simple template for the mouse-tracking paradigm","yes","Experiment-FT.osexp","C:\Users\Kristen\Documents\opPreviewExperiment-master\procedure","no","mono","no","24","no","black","no","yes","1050","legacy","31","15","C:/Users/Kristen/Documents/opPreviewExperiment-master/procedure/subject-3.csv","legacy","Kafkaesque Koffka","3.2.6","add","0","a","NA","NA","space","a","9645","NA","NA","6436","9645","2","1547","legacy","small","1024","2","48000","-16","experiment","2_7_add_FI.jpg","3","odd","legacy","198213","NA","104978","NA","NA","2397","NA","2412","95333","198213","200737","8849","92921","2399","mousetracking operator preview effect","0","0","0","no","false","no","1680"
"negative","undefined","1","undefined","undefined","white","no","legacy","legacy","legacy","0","relative","undefined","undefined","32","NA","0","0","0","0","0","0","0","48","48","0","15","0","no","03/08/19 09:27:03","A simple template for the mouse-tracking paradigm","yes","Experiment-FT.osexp","C:\Users\Kristen\Documents\opPreviewExperiment-master\procedure","no","mono","no","24","no","black","no","yes","1050","legacy","32","15","C:/Users/Kristen/Documents/opPreviewExperiment-master/procedure/subject-3.csv","legacy","Kafkaesque Koffka","3.2.6","add","0","l","NA","NA","space","a","9645","NA","NA","6436","9645","2","866","legacy","small","1024","2","48000","-16","experiment","8_2_add_true.jpg","3","odd","legacy","200759","NA","104978","NA","NA","2397","NA","2412","95333","200759","202753","8849","92921","2399","mousetracking operator preview effect","0","0","0","no","true","no","1680"
"negative","undefined","1","undefined","undefined","white","no","legacy","legacy","legacy","0","relative","undefined","undefined","33","NA","0","0","0","0","0","0","0","49","49","0","15","0","no","03/08/19 09:27:03","A simple template for the mouse-tracking paradigm","yes","Experiment-FT.osexp","C:\Users\Kristen\Documents\opPreviewExperiment-master\procedure","no","mono","no","24","no","black","no","yes","1050","legacy","33","15","C:/Users/Kristen/Documents/opPreviewExperiment-master/procedure/subject-3.csv","legacy","Kafkaesque Koffka","3.2.6","add","0","a","NA","NA","space","a","9645","NA","NA","6436","9645","2","1095","legacy","small","1024","2","48000","-16","experiment","3_6_add_FNI.jpg","3","odd","legacy","202775","NA","104978","NA","NA","2397","NA","2412","95333","202775","205006","8849","92921","2399","mousetracking operator preview effect","0","0","0","no","false","no","1680"
"neutral","undefined","1","undefined","undefined","white","no","legacy","legacy","legacy","0","relative","undefined","undefined","34","NA","0","0","0","0","0","0","0","50","50","0","15","0","no","03/08/19 09:27:03","A simple template for the mouse-tracking paradigm","yes","Experiment-FT.osexp","C:\Users\Kristen\Documents\opPreviewExperiment-master\procedure","no","mono","no","24","no","black","no","yes","1050","legacy","34","15","C:/Users/Kristen/Documents/opPreviewExperiment-master/procedure/subject-3.csv","legacy","Kafkaesque Koffka","3.2.6","mult","0","a","NA","NA","space","a","9645","NA","NA","6436","9645","2","1536","legacy","small","1024","2","48000","-16","experiment","5_3_mult_FI.jpg","3","odd","legacy","205020","NA","104978","NA","NA","2397","NA","2412","95333","205020","207533","8849","92921","2399","mousetracking operator preview effect","0","0","0","no","false","no","1680"
"negative","undefined","1","undefined","undefined","white","no","legacy","legacy","legacy","0","relative","undefined","undefined","35","NA","0","0","0","0","0","0","0","51","51","0","15","0","no","03/08/19 09:27:03","A simple template for the mouse-tracking paradigm","yes","Experiment-FT.osexp","C:\Users\Kristen\Documents\opPreviewExperiment-master\procedure","no","mono","no","24","no","black","no","yes","1050","legacy","35","15","C:/Users/Kristen/Documents/opPreviewExperiment-master/procedure/subject-3.csv","legacy","Kafkaesque Koffka","3.2.6","mult","0","l","NA","NA","space","a","9645","NA","NA","6436","9645","2","2528","legacy","large","1024","2","48000","-16","experiment","9_7_mult_true.jpg","3","odd","legacy","207558","NA","104978","NA","NA","2397","NA","2412","95333","207558","211214","8849","92921","2399","mousetracking operator preview effect","0","0","0","no","true","no","1680"
"negative","undefined","1","undefined","undefined","white","no","legacy","legacy","legacy","0","relative","undefined","undefined","36","NA","0","0","0","0","0","0","0","52","52","0","15","0","no","03/08/19 09:27:03","A simple template for the mouse-tracking paradigm","yes","Experiment-FT.osexp","C:\Users\Kristen\Documents\opPreviewExperiment-master\procedure","no","mono","no","24","no","black","no","yes","1050","legacy","36","15","C:/Users/Kristen/Documents/opPreviewExperiment-master/procedure/subject-3.csv","legacy","Kafkaesque Koffka","3.2.6","add","0","a","NA","NA","space","a","9645","NA","NA","6436","9645","2","1126","legacy","large","1024","2","48000","-16","experiment","6_8_add_FNI.jpg","3","odd","legacy","211235","NA","104978","NA","NA","2397","NA","2412","95333","211235","213491","8849","92921","2399","mousetracking operator preview effect","0","0","0","no","false","no","1680"
"negative","undefined","1","undefined","undefined","white","no","legacy","legacy","legacy","0","relative","undefined","undefined","37","NA","0","0","0","0","0","0","0","53","53","0","15","0","no","03/08/19 09:27:03","A simple template for the mouse-tracking paradigm","yes","Experiment-FT.osexp","C:\Users\Kristen\Documents\opPreviewExperiment-master\procedure","no","mono","no","24","no","black","no","yes","1050","legacy","37","15","C:/Users/Kristen/Documents/opPreviewExperiment-master/procedure/subject-3.csv","legacy","Kafkaesque Koffka","3.2.6","add","0","a","NA","NA","space","a","9645","NA","NA","6436","9645","2","1517","legacy","large","1024","2","48000","-16","experiment","6_8_add_FI.jpg","3","odd","legacy","213505","NA","104978","NA","NA","2397","NA","2412","95333","213505","216146","8849","92921","2399","mousetracking operator preview effect","0","0","0","no","false","no","1680"
"negative","undefined","1","undefined","undefined","white","no","legacy","legacy","legacy","0","relative","undefined","undefined","38","NA","0","0","0","0","0","0","0","54","54","0","15","0","no","03/08/19 09:27:03","A simple template for the mouse-tracking paradigm","yes","Experiment-FT.osexp","C:\Users\Kristen\Documents\opPreviewExperiment-master\procedure","no","mono","no","24","no","black","no","yes","1050","legacy","38","15","C:/Users/Kristen/Documents/opPreviewExperiment-master/procedure/subject-3.csv","legacy","Kafkaesque Koffka","3.2.6","mult","0","a","NA","NA","space","a","9645","NA","NA","6436","9645","2","2229","legacy","large","1024","2","48000","-16","experiment","9_7_mult_FNI.jpg","3","odd","legacy","216170","NA","104978","NA","NA","2397","NA","2412","95333","216170","219530","8849","92921","2399","mousetracking operator preview effect","0","0","0","no","false","no","1680"
"negative","undefined","1","undefined","undefined","white","no","legacy","legacy","legacy","0","relative","undefined","undefined","39","NA","0","0","0","0","0","0","0","55","55","0","15","0","no","03/08/19 09:27:03","A simple template for the mouse-tracking paradigm","yes","Experiment-FT.osexp","C:\Users\Kristen\Documents\opPreviewExperiment-master\procedure","no","mono","no","24","no","black","no","yes","1050","legacy","39","15","C:/Users/Kristen/Documents/opPreviewExperiment-master/procedure/subject-3.csv","legacy","Kafkaesque Koffka","3.2.6","add","0","l","NA","NA","space","a","9645","NA","NA","6436","9645","2","1695","legacy","small","1024","2","48000","-16","experiment","5_3_add_true.jpg","3","odd","legacy","219551","NA","104978","NA","NA","2397","NA","2412","95333","219551","222389","8849","92921","2399","mousetracking operator preview effect","0","0","0","no","true","no","1680"
"neutral","undefined","1","undefined","undefined","white","no","legacy","legacy","legacy","0","relative","undefined","undefined","40","NA","0","0","0","0","0","0","0","56","56","0","15","0","no","03/08/19 09:27:03","A simple template for the mouse-tracking paradigm","yes","Experiment-FT.osexp","C:\Users\Kristen\Documents\opPreviewExperiment-master\procedure","no","mono","no","24","no","black","no","yes","1050","legacy","40","15","C:/Users/Kristen/Documents/opPreviewExperiment-master/procedure/subject-3.csv","legacy","Kafkaesque Koffka","3.2.6","mult","0","a","NA","NA","space","a","9645","NA","NA","6436","9645","2","1197","legacy","large","1024","2","48000","-16","experiment","6_8_mult_FI.jpg","3","odd","legacy","222415","NA","104978","NA","NA","2397","NA","2412","95333","222415","224586","8849","92921","2399","mousetracking operator preview effect","0","0","0","no","false","no","1680"
"negative","undefined","1","undefined","undefined","white","no","legacy","legacy","legacy","0","relative","undefined","undefined","41","NA","0","0","0","0","0","0","0","57","57","0","15","0","no","03/08/19 09:27:03","A simple template for the mouse-tracking paradigm","yes","Experiment-FT.osexp","C:\Users\Kristen\Documents\opPreviewExperiment-master\procedure","no","mono","no","24","no","black","no","yes","1050","legacy","41","15","C:/Users/Kristen/Documents/opPreviewExperiment-master/procedure/subject-3.csv","legacy","Kafkaesque Koffka","3.2.6","add","0","a","NA","NA","space","a","9645","NA","NA","6436","9645","2","1279","legacy","large","1024","2","48000","-16","experiment","9_7_add_FNI.jpg","3","odd","legacy","224613","NA","104978","NA","NA","2397","NA","2412","95333","224613","227038","8849","92921","2399","mousetracking operator preview effect","0","0","0","no","false","no","1680"
"neutral","undefined","1","undefined","undefined","white","no","legacy","legacy","legacy","0","relative","undefined","undefined","42","NA","0","0","0","0","0","0","0","58","58","0","15","0","no","03/08/19 09:27:03","A simple template for the mouse-tracking paradigm","yes","Experiment-FT.osexp","C:\Users\Kristen\Documents\opPreviewExperiment-master\procedure","no","mono","no","24","no","black","no","yes","1050","legacy","42","15","C:/Users/Kristen/Documents/opPreviewExperiment-master/procedure/subject-3.csv","legacy","Kafkaesque Koffka","3.2.6","add","0","a","NA","NA","space","a","9645","NA","NA","6436","9645","2","1273","legacy","large","1024","2","48000","-16","experiment","8_4_add_FI.jpg","3","odd","legacy","227059","NA","104978","NA","NA","2397","NA","2412","95333","227059","229297","8849","92921","2399","mousetracking operator preview effect","0","0","0","no","false","no","1680"
"negative","undefined","1","undefined","undefined","white","no","legacy","legacy","legacy","0","relative","undefined","undefined","43","NA","0","0","0","0","0","0","0","59","59","0","15","0","no","03/08/19 09:27:03","A simple template for the mouse-tracking paradigm","yes","Experiment-FT.osexp","C:\Users\Kristen\Documents\opPreviewExperiment-master\procedure","no","mono","no","24","no","black","no","yes","1050","legacy","43","15","C:/Users/Kristen/Documents/opPreviewExperiment-master/procedure/subject-3.csv","legacy","Kafkaesque Koffka","3.2.6","mult","0","l","NA","NA","space","a","9645","NA","NA","6436","9645","2","1160","legacy","small","1024","2","48000","-16","experiment","2_7_mult_true.jpg","3","odd","legacy","229326","NA","104978","NA","NA","2397","NA","2412","95333","229326","231630","8849","92921","2399","mousetracking operator preview effect","0","0","0","no","true","no","1680"
"negative","undefined","1","undefined","undefined","white","no","legacy","legacy","legacy","0","relative","undefined","undefined","44","NA","0","0","0","0","0","0","0","60","60","0","15","0","no","03/08/19 09:27:03","A simple template for the mouse-tracking paradigm","yes","Experiment-FT.osexp","C:\Users\Kristen\Documents\opPreviewExperiment-master\procedure","no","mono","no","24","no","black","no","yes","1050","legacy","44","15","C:/Users/Kristen/Documents/opPreviewExperiment-master/procedure/subject-3.csv","legacy","Kafkaesque Koffka","3.2.6","mult","0","a","NA","NA","space","a","9645","NA","NA","6436","9645","2","905","legacy","small","1024","2","48000","-16","experiment","5_3_mult_FI.jpg","3","odd","legacy","231656","NA","104978","NA","NA","2397","NA","2412","95333","231656","233682","8849","92921","2399","mousetracking operator preview effect","0","0","0","no","false","no","1680"
"negative","undefined","1","undefined","undefined","white","no","legacy","legacy","legacy","0","relative","undefined","undefined","45","NA","0","0","0","0","0","0","0","61","61","0","15","0","no","03/08/19 09:27:03","A simple template for the mouse-tracking paradigm","yes","Experiment-FT.osexp","C:\Users\Kristen\Documents\opPreviewExperiment-master\procedure","no","mono","no","24","no","black","no","yes","1050","legacy","45","15","C:/Users/Kristen/Documents/opPreviewExperiment-master/procedure/subject-3.csv","legacy","Kafkaesque Koffka","3.2.6","mult","0","a","NA","NA","space","a","9645","NA","NA","6436","9645","2","1681","legacy","small","1024","2","48000","-16","experiment","3_6_mult_FNI.jpg","3","odd","legacy","233702","NA","104978","NA","NA","2397","NA","2412","95333","233702","236519","8849","92921","2399","mousetracking operator preview effect","0","0","0","no","false","no","1680"
"negative","undefined","1","undefined","undefined","white","no","legacy","legacy","legacy","0","relative","undefined","undefined","46","NA","0","0","0","0","0","0","0","62","62","0","15","0","no","03/08/19 09:27:03","A simple template for the mouse-tracking paradigm","yes","Experiment-FT.osexp","C:\Users\Kristen\Documents\opPreviewExperiment-master\procedure","no","mono","no","24","no","black","no","yes","1050","legacy","46","15","C:/Users/Kristen/Documents/opPreviewExperiment-master/procedure/subject-3.csv","legacy","Kafkaesque Koffka","3.2.6","add","0","a","NA","NA","space","a","9645","NA","NA","6436","9645","2","1679","legacy","small","1024","2","48000","-16","experiment","2_7_add_FI.jpg","3","odd","legacy","236546","NA","104978","NA","NA","2397","NA","2412","95333","236546","239338","8849","92921","2399","mousetracking operator preview effect","0","0","0","no","false","no","1680"
"neutral","undefined","1","undefined","undefined","white","no","legacy","legacy","legacy","0","relative","undefined","undefined","47","NA","0","0","0","0","0","0","0","63","63","0","15","0","no","03/08/19 09:27:03","A simple template for the mouse-tracking paradigm","yes","Experiment-FT.osexp","C:\Users\Kristen\Documents\opPreviewExperiment-master\procedure","no","mono","no","24","no","black","no","yes","1050","legacy","47","15","C:/Users/Kristen/Documents/opPreviewExperiment-master/procedure/subject-3.csv","legacy","Kafkaesque Koffka","3.2.6","add","0","l","NA","NA","space","a","9645","NA","NA","6436","9645","2","1064","legacy","small","1024","2","48000","-16","experiment","3_6_add_true.jpg","3","odd","legacy","239354","NA","104978","NA","NA","2397","NA","2412","95333","239354","241380","8849","92921","2399","mousetracking operator preview effect","0","0","0","no","true","no","1680"
"neutral","undefined","1","undefined","undefined","white","no","legacy","legacy","legacy","0","relative","undefined","undefined","48","NA","0","0","0","0","0","0","0","64","64","0","15","0","no","03/08/19 09:27:03","A simple template for the mouse-tracking paradigm","yes","Experiment-FT.osexp","C:\Users\Kristen\Documents\opPreviewExperiment-master\procedure","no","mono","no","24","no","black","no","yes","1050","legacy","48","15","C:/Users/Kristen/Documents/opPreviewExperiment-master/procedure/subject-3.csv","legacy","Kafkaesque Koffka","3.2.6","add","0","a","NA","NA","space","a","9645","NA","NA","6436","9645","2","1582","legacy","large","1024","2","48000","-16","experiment","4_9_add_FI.jpg","3","odd","legacy","241400","NA","104978","NA","NA","2397","NA","2412","95333","241400","243960","8849","92921","2399","mousetracking operator preview effect","0","0","0","no","false","no","1680"
"neutral","undefined","1","undefined","undefined","white","no","legacy","legacy","legacy","0","relative","undefined","undefined","49","NA","0","0","0","0","0","0","0","65","65","0","15","0","no","03/08/19 09:27:03","A simple template for the mouse-tracking paradigm","yes","Experiment-FT.osexp","C:\Users\Kristen\Documents\opPreviewExperiment-master\procedure","no","mono","no","24","no","black","no","yes","1050","legacy","49","15","C:/Users/Kristen/Documents/opPreviewExperiment-master/procedure/subject-3.csv","legacy","Kafkaesque Koffka","3.2.6","mult","0","a","NA","NA","space","a","9645","NA","NA","6436","9645","2","2004","legacy","large","1024","2","48000","-16","experiment","8_4_mult_FNI.jpg","3","odd","legacy","243987","NA","104978","NA","NA","2397","NA","2412","95333","243987","246972","8849","92921","2399","mousetracking operator preview effect","0","0","0","no","false","no","1680"
"neutral","undefined","1","undefined","undefined","white","no","legacy","legacy","legacy","0","relative","undefined","undefined","50","NA","0","0","0","0","0","0","0","66","66","0","15","0","no","03/08/19 09:27:03","A simple template for the mouse-tracking paradigm","yes","Experiment-FT.osexp","C:\Users\Kristen\Documents\opPreviewExperiment-master\procedure","no","mono","no","24","no","black","no","yes","1050","legacy","50","15","C:/Users/Kristen/Documents/opPreviewExperiment-master/procedure/subject-3.csv","legacy","Kafkaesque Koffka","3.2.6","add","0","a","NA","NA","space","a","9645","NA","NA","6436","9645","2","1873","legacy","large","1024","2","48000","-16","experiment","4_9_add_FNI.jpg","3","odd","legacy","246996","NA","104978","NA","NA","2397","NA","2412","95333","246996","249849","8849","92921","2399","mousetracking operator preview effect","0","0","0","no","false","no","1680"
"negative","undefined","1","undefined","undefined","white","no","legacy","legacy","legacy","0","relative","undefined","undefined","51","NA","0","0","0","0","0","0","0","67","67","0","15","0","no","03/08/19 09:27:03","A simple template for the mouse-tracking paradigm","yes","Experiment-FT.osexp","C:\Users\Kristen\Documents\opPreviewExperiment-master\procedure","no","mono","no","24","no","black","no","yes","1050","legacy","51","15","C:/Users/Kristen/Documents/opPreviewExperiment-master/procedure/subject-3.csv","legacy","Kafkaesque Koffka","3.2.6","add","0","a","NA","NA","space","a","9645","NA","NA","6436","9645","2","1627","legacy","large","1024","2","48000","-16","experiment","9_7_add_FI.jpg","3","odd","legacy","249870","NA","104978","NA","NA","2397","NA","2412","95333","249870","252632","8849","92921","2399","mousetracking operator preview effect","0","0","0","no","false","no","1680"
"negative","undefined","1","undefined","undefined","white","no","legacy","legacy","legacy","0","relative","undefined","undefined","52","NA","0","0","0","0","0","0","0","68","68","0","15","0","no","03/08/19 09:27:03","A simple template for the mouse-tracking paradigm","yes","Experiment-FT.osexp","C:\Users\Kristen\Documents\opPreviewExperiment-master\procedure","no","mono","no","24","no","black","no","yes","1050","legacy","52","15","C:/Users/Kristen/Documents/opPreviewExperiment-master/procedure/subject-3.csv","legacy","Kafkaesque Koffka","3.2.6","add","0","a","NA","NA","space","a","9645","NA","NA","6436","9645","2","1012","legacy","large","1024","2","48000","-16","experiment","8_4_add_FNI.jpg","3","odd","legacy","252658","NA","104978","NA","NA","2397","NA","2412","95333","252658","254810","8849","92921","2399","mousetracking operator preview effect","0","0","0","no","false","no","1680"
"negative","undefined","1","undefined","undefined","white","no","legacy","legacy","legacy","0","relative","undefined","undefined","53","NA","0","0","0","0","0","0","0","69","69","0","15","0","no","03/08/19 09:27:03","A simple template for the mouse-tracking paradigm","yes","Experiment-FT.osexp","C:\Users\Kristen\Documents\opPreviewExperiment-master\procedure","no","mono","no","24","no","black","no","yes","1050","legacy","53","15","C:/Users/Kristen/Documents/opPreviewExperiment-master/procedure/subject-3.csv","legacy","Kafkaesque Koffka","3.2.6","add","0","a","NA","NA","space","a","9645","NA","NA","6436","9645","2","1329","legacy","small","1024","2","48000","-16","experiment","5_3_add_FNI.jpg","3","odd","legacy","254835","NA","104978","NA","NA","2397","NA","2412","95333","254835","257311","8849","92921","2399","mousetracking operator preview effect","0","0","0","no","false","no","1680"
"neutral","undefined","1","undefined","undefined","white","no","legacy","legacy","legacy","0","relative","undefined","undefined","54","NA","0","0","0","0","0","0","0","70","70","0","15","0","no","03/08/19 09:27:03","A simple template for the mouse-tracking paradigm","yes","Experiment-FT.osexp","C:\Users\Kristen\Documents\opPreviewExperiment-master\procedure","no","mono","no","24","no","black","no","yes","1050","legacy","54","15","C:/Users/Kristen/Documents/opPreviewExperiment-master/procedure/subject-3.csv","legacy","Kafkaesque Koffka","3.2.6","add","0","a","NA","NA","space","a","9645","NA","NA","6436","9645","2","1177","legacy","large","1024","2","48000","-16","experiment","9_7_add_FNI.jpg","3","odd","legacy","257331","NA","104978","NA","NA","2397","NA","2412","95333","257331","259477","8849","92921","2399","mousetracking operator preview effect","0","0","0","no","false","no","1680"
"neutral","undefined","1","undefined","undefined","white","no","legacy","legacy","legacy","0","relative","undefined","undefined","55","NA","0","0","0","0","0","0","0","71","71","0","15","0","no","03/08/19 09:27:03","A simple template for the mouse-tracking paradigm","yes","Experiment-FT.osexp","C:\Users\Kristen\Documents\opPreviewExperiment-master\procedure","no","mono","no","24","no","black","no","yes","1050","legacy","55","15","C:/Users/Kristen/Documents/opPreviewExperiment-master/procedure/subject-3.csv","legacy","Kafkaesque Koffka","3.2.6","mult","0","l","NA","NA","space","a","9645","NA","NA","6436","9645","2","1244","legacy","large","1024","2","48000","-16","experiment","6_8_mult_true.jpg","3","odd","legacy","259497","NA","104978","NA","NA","2397","NA","2412","95333","259497","261692","8849","92921","2399","mousetracking operator preview effect","0","0","0","no","true","no","1680"
"neutral","undefined","1","undefined","undefined","white","no","legacy","legacy","legacy","0","relative","undefined","undefined","56","NA","0","0","0","0","0","0","0","72","72","0","15","0","no","03/08/19 09:27:03","A simple template for the mouse-tracking paradigm","yes","Experiment-FT.osexp","C:\Users\Kristen\Documents\opPreviewExperiment-master\procedure","no","mono","no","24","no","black","no","yes","1050","legacy","56","15","C:/Users/Kristen/Documents/opPreviewExperiment-master/procedure/subject-3.csv","legacy","Kafkaesque Koffka","3.2.6","add","0","l","NA","NA","space","a","9645","NA","NA","6436","9645","2","1083","legacy","large","1024","2","48000","-16","experiment","8_4_add_true.jpg","3","odd","legacy","261717","NA","104978","NA","NA","2397","NA","2412","95333","261717","263769","8849","92921","2399","mousetracking operator preview effect","0","0","0","no","true","no","1680"
"negative","undefined","1","undefined","undefined","white","no","legacy","legacy","legacy","0","relative","undefined","undefined","57","NA","0","0","0","0","0","0","0","73","73","0","15","0","no","03/08/19 09:27:03","A simple template for the mouse-tracking paradigm","yes","Experiment-FT.osexp","C:\Users\Kristen\Documents\opPreviewExperiment-master\procedure","no","mono","no","24","no","black","no","yes","1050","legacy","57","15","C:/Users/Kristen/Documents/opPreviewExperiment-master/procedure/subject-3.csv","legacy","Kafkaesque Koffka","3.2.6","mult","0","a","NA","NA","space","a","9645","NA","NA","6436","9645","2","1352","legacy","large","1024","2","48000","-16","experiment","4_9_mult_FI.jpg","3","odd","legacy","263791","NA","104978","NA","NA","2397","NA","2412","95333","263791","266274","8849","92921","2399","mousetracking operator preview effect","0","0","0","no","false","no","1680"
"neutral","undefined","1","undefined","undefined","white","no","legacy","legacy","legacy","0","relative","undefined","undefined","58","NA","0","0","0","0","0","0","0","74","74","0","15","0","no","03/08/19 09:27:03","A simple template for the mouse-tracking paradigm","yes","Experiment-FT.osexp","C:\Users\Kristen\Documents\opPreviewExperiment-master\procedure","no","mono","no","24","no","black","no","yes","1050","legacy","58","15","C:/Users/Kristen/Documents/opPreviewExperiment-master/procedure/subject-3.csv","legacy","Kafkaesque Koffka","3.2.6","mult","0","a","NA","NA","space","a","9645","NA","NA","6436","9645","2","1200","legacy","large","1024","2","48000","-16","experiment","6_8_mult_FNI.jpg","3","odd","legacy","266298","NA","104978","NA","NA","2397","NA","2412","95333","266298","268462","8849","92921","2399","mousetracking operator preview effect","0","0","0","no","false","no","1680"
"negative","undefined","1","undefined","undefined","white","no","legacy","legacy","legacy","0","relative","undefined","undefined","59","NA","0","0","0","0","0","0","0","75","75","0","15","0","no","03/08/19 09:27:03","A simple template for the mouse-tracking paradigm","yes","Experiment-FT.osexp","C:\Users\Kristen\Documents\opPreviewExperiment-master\procedure","no","mono","no","24","no","black","no","yes","1050","legacy","59","15","C:/Users/Kristen/Documents/opPreviewExperiment-master/procedure/subject-3.csv","legacy","Kafkaesque Koffka","3.2.6","mult","0","l","NA","NA","space","a","9645","NA","NA","6436","9645","2","1052","legacy","large","1024","2","48000","-16","experiment","8_4_mult_true.jpg","3","odd","legacy","268482","NA","104978","NA","NA","2397","NA","2412","95333","268482","270673","8849","92921","2399","mousetracking operator preview effect","0","0","0","no","true","no","1680"
"negative","undefined","1","undefined","undefined","white","no","legacy","legacy","legacy","0","relative","undefined","undefined","60","NA","0","0","0","0","0","0","0","76","76","0","15","0","no","03/08/19 09:27:03","A simple template for the mouse-tracking paradigm","yes","Experiment-FT.osexp","C:\Users\Kristen\Documents\opPreviewExperiment-master\procedure","no","mono","no","24","no","black","no","yes","1050","legacy","60","15","C:/Users/Kristen/Documents/opPreviewExperiment-master/procedure/subject-3.csv","legacy","Kafkaesque Koffka","3.2.6","add","0","l","NA","NA","space","a","9645","NA","NA","6436","9645","2","1331","legacy","large","1024","2","48000","-16","experiment","8_4_add_true.jpg","3","odd","legacy","270694","NA","104978","NA","NA","2397","NA","2412","95333","270694","273140","8849","92921","2399","mousetracking operator preview effect","0","0","0","no","true","no","1680"
"neutral","undefined","1","undefined","undefined","white","no","legacy","legacy","legacy","0","relative","undefined","undefined","61","NA","0","0","0","0","0","0","0","77","77","0","15","0","no","03/08/19 09:27:03","A simple template for the mouse-tracking paradigm","yes","Experiment-FT.osexp","C:\Users\Kristen\Documents\opPreviewExperiment-master\procedure","no","mono","no","24","no","black","no","yes","1050","legacy","61","15","C:/Users/Kristen/Documents/opPreviewExperiment-master/procedure/subject-3.csv","legacy","Kafkaesque Koffka","3.2.6","mult","0","a","NA","NA","space","a","9645","NA","NA","6436","9645","2","934","legacy","small","1024","2","48000","-16","experiment","2_7_mult_FNI.jpg","3","odd","legacy","273164","NA","104978","NA","NA","2397","NA","2412","95333","273164","275055","8849","92921","2399","mousetracking operator preview effect","0","0","0","no","false","no","1680"
"neutral","undefined","1","undefined","undefined","white","no","legacy","legacy","legacy","0","relative","undefined","undefined","62","NA","0","0","0","0","0","0","0","78","78","0","15","0","no","03/08/19 09:27:03","A simple template for the mouse-tracking paradigm","yes","Experiment-FT.osexp","C:\Users\Kristen\Documents\opPreviewExperiment-master\procedure","no","mono","no","24","no","black","no","yes","1050","legacy","62","15","C:/Users/Kristen/Documents/opPreviewExperiment-master/procedure/subject-3.csv","legacy","Kafkaesque Koffka","3.2.6","add","0","l","NA","NA","space","a","9645","NA","NA","6436","9645","2","1032","legacy","large","1024","2","48000","-16","experiment","4_9_add_true.jpg","3","odd","legacy","275068","NA","104978","NA","NA","2397","NA","2412","95333","275068","277054","8849","92921","2399","mousetracking operator preview effect","0","0","0","no","true","no","1680"
"negative","undefined","1","undefined","undefined","white","no","legacy","legacy","legacy","0","relative","undefined","undefined","63","NA","0","0","0","0","0","0","0","79","79","0","15","0","no","03/08/19 09:27:03","A simple template for the mouse-tracking paradigm","yes","Experiment-FT.osexp","C:\Users\Kristen\Documents\opPreviewExperiment-master\procedure","no","mono","no","24","no","black","no","yes","1050","legacy","63","15","C:/Users/Kristen/Documents/opPreviewExperiment-master/procedure/subject-3.csv","legacy","Kafkaesque Koffka","3.2.6","mult","0","a","NA","NA","space","a","9645","NA","NA","6436","9645","2","1104","legacy","small","1024","2","48000","-16","experiment","8_2_mult_FNI.jpg","3","odd","legacy","277080","NA","104978","NA","NA","2397","NA","2412","95333","277080","279315","8849","92921","2399","mousetracking operator preview effect","0","0","0","no","false","no","1680"
"negative","undefined","1","undefined","undefined","white","no","legacy","legacy","legacy","0","relative","undefined","undefined","64","NA","0","0","0","0","0","0","0","80","80","0","15","0","no","03/08/19 09:27:03","A simple template for the mouse-tracking paradigm","yes","Experiment-FT.osexp","C:\Users\Kristen\Documents\opPreviewExperiment-master\procedure","no","mono","no","24","no","black","no","yes","1050","legacy","64","15","C:/Users/Kristen/Documents/opPreviewExperiment-master/procedure/subject-3.csv","legacy","Kafkaesque Koffka","3.2.6","add","0","l","NA","NA","space","a","9645","NA","NA","6436","9645","2","1001","legacy","small","1024","2","48000","-16","experiment","2_7_add_true.jpg","3","odd","legacy","279329","NA","104978","NA","NA","2397","NA","2412","95333","279330","281483","8849","92921","2399","mousetracking operator preview effect","0","0","0","no","true","no","1680"
"negative","undefined","1","undefined","undefined","white","no","legacy","legacy","legacy","0","relative","undefined","undefined","65","NA","0","0","0","0","0","0","0","81","81","0","15","0","no","03/08/19 09:27:03","A simple template for the mouse-tracking paradigm","yes","Experiment-FT.osexp","C:\Users\Kristen\Documents\opPreviewExperiment-master\procedure","no","mono","no","24","no","black","no","yes","1050","legacy","65","15","C:/Users/Kristen/Documents/opPreviewExperiment-master/procedure/subject-3.csv","legacy","Kafkaesque Koffka","3.2.6","mult","0","a","NA","NA","space","a","9645","NA","NA","6436","9645","2","1210","legacy","large","1024","2","48000","-16","experiment","8_4_mult_FNI.jpg","3","odd","legacy","281509","NA","104978","NA","NA","2397","NA","2412","95333","281509","283835","8849","92921","2399","mousetracking operator preview effect","0","0","0","no","false","no","1680"
"negative","undefined","1","undefined","undefined","white","no","legacy","legacy","legacy","0","relative","undefined","undefined","66","NA","0","0","0","0","0","0","0","82","82","0","15","0","no","03/08/19 09:27:03","A simple template for the mouse-tracking paradigm","yes","Experiment-FT.osexp","C:\Users\Kristen\Documents\opPreviewExperiment-master\procedure","no","mono","no","24","no","black","no","yes","1050","legacy","66","15","C:/Users/Kristen/Documents/opPreviewExperiment-master/procedure/subject-3.csv","legacy","Kafkaesque Koffka","3.2.6","add","0","l","NA","NA","space","a","9645","NA","NA","6436","9645","2","856","legacy","large","1024","2","48000","-16","experiment","6_8_add_true.jpg","3","odd","legacy","283857","NA","104978","NA","NA","2397","NA","2412","95333","283857","285842","8849","92921","2399","mousetracking operator preview effect","0","0","0","no","true","no","1680"
"negative","undefined","1","undefined","undefined","white","no","legacy","legacy","legacy","0","relative","undefined","undefined","67","NA","0","0","0","0","0","0","0","83","83","0","15","0","no","03/08/19 09:27:03","A simple template for the mouse-tracking paradigm","yes","Experiment-FT.osexp","C:\Users\Kristen\Documents\opPreviewExperiment-master\procedure","no","mono","no","24","no","black","no","yes","1050","legacy","67","15","C:/Users/Kristen/Documents/opPreviewExperiment-master/procedure/subject-3.csv","legacy","Kafkaesque Koffka","3.2.6","mult","0","a","NA","NA","space","a","9645","NA","NA","6436","9645","2","1032","legacy","small","1024","2","48000","-16","experiment","2_7_mult_FI.jpg","3","odd","legacy","285866","NA","104978","NA","NA","2397","NA","2412","95333","285866","288046","8849","92921","2399","mousetracking operator preview effect","0","0","0","no","false","no","1680"
"neutral","undefined","1","undefined","undefined","white","no","legacy","legacy","legacy","0","relative","undefined","undefined","68","NA","0","0","0","0","0","0","0","84","84","0","15","0","no","03/08/19 09:27:03","A simple template for the mouse-tracking paradigm","yes","Experiment-FT.osexp","C:\Users\Kristen\Documents\opPreviewExperiment-master\procedure","no","mono","no","24","no","black","no","yes","1050","legacy","68","15","C:/Users/Kristen/Documents/opPreviewExperiment-master/procedure/subject-3.csv","legacy","Kafkaesque Koffka","3.2.6","mult","0","l","NA","NA","space","a","9645","NA","NA","6436","9645","2","895","legacy","large","1024","2","48000","-16","experiment","8_4_mult_true.jpg","3","odd","legacy","288071","NA","104978","NA","NA","2397","NA","2412","95333","288071","289909","8849","92921","2399","mousetracking operator preview effect","0","0","0","no","true","no","1680"
"negative","undefined","1","undefined","undefined","white","no","legacy","legacy","legacy","0","relative","undefined","undefined","69","NA","0","0","0","0","0","0","0","85","85","0","15","0","no","03/08/19 09:27:03","A simple template for the mouse-tracking paradigm","yes","Experiment-FT.osexp","C:\Users\Kristen\Documents\opPreviewExperiment-master\procedure","no","mono","no","24","no","black","no","yes","1050","legacy","69","15","C:/Users/Kristen/Documents/opPreviewExperiment-master/procedure/subject-3.csv","legacy","Kafkaesque Koffka","3.2.6","add","0","l","NA","NA","space","a","9645","NA","NA","6436","9645","2","910","legacy","small","1024","2","48000","-16","experiment","5_3_add_true.jpg","3","odd","legacy","289929","NA","104978","NA","NA","2397","NA","2412","95333","289929","291972","8849","92921","2399","mousetracking operator preview effect","0","0","0","no","true","no","1680"
"neutral","undefined","1","undefined","undefined","white","no","legacy","legacy","legacy","0","relative","undefined","undefined","70","NA","0","0","0","0","0","0","0","86","86","0","15","0","no","03/08/19 09:27:03","A simple template for the mouse-tracking paradigm","yes","Experiment-FT.osexp","C:\Users\Kristen\Documents\opPreviewExperiment-master\procedure","no","mono","no","24","no","black","no","yes","1050","legacy","70","15","C:/Users/Kristen/Documents/opPreviewExperiment-master/procedure/subject-3.csv","legacy","Kafkaesque Koffka","3.2.6","add","0","l","NA","NA","space","a","9645","NA","NA","6436","9645","2","1181","legacy","large","1024","2","48000","-16","experiment","9_7_add_true.jpg","3","odd","legacy","291993","NA","104978","NA","NA","2397","NA","2412","95333","291993","294132","8849","92921","2399","mousetracking operator preview effect","0","0","0","no","true","no","1680"
"neutral","undefined","1","undefined","undefined","white","no","legacy","legacy","legacy","0","relative","undefined","undefined","71","NA","0","0","0","0","0","0","0","87","87","0","15","0","no","03/08/19 09:27:03","A simple template for the mouse-tracking paradigm","yes","Experiment-FT.osexp","C:\Users\Kristen\Documents\opPreviewExperiment-master\procedure","no","mono","no","24","no","black","no","yes","1050","legacy","71","15","C:/Users/Kristen/Documents/opPreviewExperiment-master/procedure/subject-3.csv","legacy","Kafkaesque Koffka","3.2.6","mult","0","l","NA","NA","space","a","9645","NA","NA","6436","9645","2","1174","legacy","small","1024","2","48000","-16","experiment","3_6_mult_true.jpg","3","odd","legacy","294158","NA","104978","NA","NA","2397","NA","2412","95333","294158","296293","8849","92921","2399","mousetracking operator preview effect","0","0","0","no","true","no","1680"
"negative","undefined","1","undefined","undefined","white","no","legacy","legacy","legacy","0","relative","undefined","undefined","72","NA","0","0","0","0","0","0","0","88","88","0","15","0","no","03/08/19 09:27:03","A simple template for the mouse-tracking paradigm","yes","Experiment-FT.osexp","C:\Users\Kristen\Documents\opPreviewExperiment-master\procedure","no","mono","no","24","no","black","no","yes","1050","legacy","72","15","C:/Users/Kristen/Documents/opPreviewExperiment-master/procedure/subject-3.csv","legacy","Kafkaesque Koffka","3.2.6","add","0","a","NA","NA","space","a","9645","NA","NA","6436","9645","2","833","legacy","small","1024","2","48000","-16","experiment","5_3_add_FI.jpg","3","odd","legacy","296318","NA","104978","NA","NA","2397","NA","2412","95333","296319","298304","8849","92921","2399","mousetracking operator preview effect","0","0","0","no","false","no","1680"
"negative","undefined","1","undefined","undefined","white","no","legacy","legacy","legacy","0","relative","undefined","undefined","73","NA","0","0","0","0","0","0","0","89","89","0","15","0","no","03/08/19 09:27:03","A simple template for the mouse-tracking paradigm","yes","Experiment-FT.osexp","C:\Users\Kristen\Documents\opPreviewExperiment-master\procedure","no","mono","no","24","no","black","no","yes","1050","legacy","73","15","C:/Users/Kristen/Documents/opPreviewExperiment-master/procedure/subject-3.csv","legacy","Kafkaesque Koffka","3.2.6","add","0","l","NA","NA","space","a","9645","NA","NA","6436","9645","2","966","legacy","small","1024","2","48000","-16","experiment","3_6_add_true.jpg","3","odd","legacy","298324","NA","104978","NA","NA","2397","NA","2412","95333","298324","300403","8849","92921","2399","mousetracking operator preview effect","0","0","0","no","true","no","1680"
"neutral","undefined","1","undefined","undefined","white","no","legacy","legacy","legacy","0","relative","undefined","undefined","74","NA","0","0","0","0","0","0","0","90","90","0","15","0","no","03/08/19 09:27:03","A simple template for the mouse-tracking paradigm","yes","Experiment-FT.osexp","C:\Users\Kristen\Documents\opPreviewExperiment-master\procedure","no","mono","no","24","no","black","no","yes","1050","legacy","74","15","C:/Users/Kristen/Documents/opPreviewExperiment-master/procedure/subject-3.csv","legacy","Kafkaesque Koffka","3.2.6","add","0","a","NA","NA","space","a","9645","NA","NA","6436","9645","2","1116","legacy","small","1024","2","48000","-16","experiment","8_2_add_FI.jpg","3","odd","legacy","300424","NA","104978","NA","NA","2397","NA","2412","95333","300424","302515","8849","92921","2399","mousetracking operator preview effect","0","0","0","no","false","no","1680"
"negative","undefined","1","undefined","undefined","white","no","legacy","legacy","legacy","0","relative","undefined","undefined","75","NA","0","0","0","0","0","0","0","91","91","0","15","0","no","03/08/19 09:27:03","A simple template for the mouse-tracking paradigm","yes","Experiment-FT.osexp","C:\Users\Kristen\Documents\opPreviewExperiment-master\procedure","no","mono","no","24","no","black","no","yes","1050","legacy","75","15","C:/Users/Kristen/Documents/opPreviewExperiment-master/procedure/subject-3.csv","legacy","Kafkaesque Koffka","3.2.6","mult","0","l","NA","NA","space","a","9645","NA","NA","6436","9645","2","952","legacy","large","1024","2","48000","-16","experiment","8_4_mult_true.jpg","3","odd","legacy","302540","NA","104978","NA","NA","2397","NA","2412","95333","302540","304603","8849","92921","2399","mousetracking operator preview effect","0","0","0","no","true","no","1680"
"neutral","undefined","1","undefined","undefined","white","no","legacy","legacy","legacy","0","relative","undefined","undefined","76","NA","0","0","0","0","0","0","0","92","92","0","15","0","no","03/08/19 09:27:03","A simple template for the mouse-tracking paradigm","yes","Experiment-FT.osexp","C:\Users\Kristen\Documents\opPreviewExperiment-master\procedure","no","mono","no","24","no","black","no","yes","1050","legacy","76","15","C:/Users/Kristen/Documents/opPreviewExperiment-master/procedure/subject-3.csv","legacy","Kafkaesque Koffka","3.2.6","add","0","l","NA","NA","space","a","9645","NA","NA","6436","9645","2","778","legacy","small","1024","2","48000","-16","experiment","8_2_add_true.jpg","3","odd","legacy","304627","NA","104978","NA","NA","2397","NA","2412","95333","304627","306374","8849","92921","2399","mousetracking operator preview effect","0","0","0","no","true","no","1680"
"negative","undefined","1","undefined","undefined","white","no","legacy","legacy","legacy","0","relative","undefined","undefined","77","NA","0","0","0","0","0","0","0","93","93","0","15","0","no","03/08/19 09:27:03","A simple template for the mouse-tracking paradigm","yes","Experiment-FT.osexp","C:\Users\Kristen\Documents\opPreviewExperiment-master\procedure","no","mono","no","24","no","black","no","yes","1050","legacy","77","15","C:/Users/Kristen/Documents/opPreviewExperiment-master/procedure/subject-3.csv","legacy","Kafkaesque Koffka","3.2.6","add","0","l","NA","NA","space","a","9645","NA","NA","6436","9645","2","1334","legacy","large","1024","2","48000","-16","experiment","4_9_add_true.jpg","3","odd","legacy","306394","NA","104978","NA","NA","2397","NA","2412","95333","306394","308864","8849","92921","2399","mousetracking operator preview effect","0","0","0","no","true","no","1680"
"neutral","undefined","1","undefined","undefined","white","no","legacy","legacy","legacy","0","relative","undefined","undefined","78","NA","0","0","0","0","0","0","0","94","94","0","15","0","no","03/08/19 09:27:03","A simple template for the mouse-tracking paradigm","yes","Experiment-FT.osexp","C:\Users\Kristen\Documents\opPreviewExperiment-master\procedure","no","mono","no","24","no","black","no","yes","1050","legacy","78","15","C:/Users/Kristen/Documents/opPreviewExperiment-master/procedure/subject-3.csv","legacy","Kafkaesque Koffka","3.2.6","mult","0","l","NA","NA","space","a","9645","NA","NA","6436","9645","2","1297","legacy","large","1024","2","48000","-16","experiment","4_9_mult_true.jpg","3","odd","legacy","308890","NA","104978","NA","NA","2397","NA","2412","95333","308890","311154","8849","92921","2399","mousetracking operator preview effect","0","0","0","no","true","no","1680"
"neutral","undefined","1","undefined","undefined","white","no","legacy","legacy","legacy","0","relative","undefined","undefined","79","NA","0","0","0","0","0","0","0","95","95","0","15","0","no","03/08/19 09:27:03","A simple template for the mouse-tracking paradigm","yes","Experiment-FT.osexp","C:\Users\Kristen\Documents\opPreviewExperiment-master\procedure","no","mono","no","24","no","black","no","yes","1050","legacy","79","15","C:/Users/Kristen/Documents/opPreviewExperiment-master/procedure/subject-3.csv","legacy","Kafkaesque Koffka","3.2.6","add","0","l","NA","NA","space","a","9645","NA","NA","6436","9645","2","952","legacy","small","1024","2","48000","-16","experiment","3_6_add_true.jpg","3","odd","legacy","311174","NA","104978","NA","NA","2397","NA","2412","95333","311174","313093","8849","92921","2399","mousetracking operator preview effect","0","0","0","no","true","no","1680"
"neutral","undefined","1","undefined","undefined","white","no","legacy","legacy","legacy","0","relative","undefined","undefined","80","NA","0","0","0","0","0","0","0","96","96","0","15","0","no","03/08/19 09:27:03","A simple template for the mouse-tracking paradigm","yes","Experiment-FT.osexp","C:\Users\Kristen\Documents\opPreviewExperiment-master\procedure","no","mono","no","24","no","black","no","yes","1050","legacy","80","15","C:/Users/Kristen/Documents/opPreviewExperiment-master/procedure/subject-3.csv","legacy","Kafkaesque Koffka","3.2.6","add","0","l","NA","NA","space","a","9645","NA","NA","6436","9645","2","898","legacy","small","1024","2","48000","-16","experiment","2_7_add_true.jpg","3","odd","legacy","313113","NA","104978","NA","NA","2397","NA","2412","95333","313113","314965","8849","92921","2399","mousetracking operator preview effect","0","0","0","no","true","no","1680"
"neutral","undefined","1","undefined","undefined","white","no","legacy","legacy","legacy","0","relative","undefined","undefined","81","NA","0","0","0","0","0","0","0","97","97","0","15","0","no","03/08/19 09:27:03","A simple template for the mouse-tracking paradigm","yes","Experiment-FT.osexp","C:\Users\Kristen\Documents\opPreviewExperiment-master\procedure","no","mono","no","24","no","black","no","yes","1050","legacy","81","15","C:/Users/Kristen/Documents/opPreviewExperiment-master/procedure/subject-3.csv","legacy","Kafkaesque Koffka","3.2.6","mult","0","a","NA","NA","space","a","9645","NA","NA","6436","9645","2","2682","legacy","large","1024","2","48000","-16","experiment","9_7_mult_FI.jpg","3","odd","legacy","314986","NA","104978","NA","NA","2397","NA","2412","95333","314987","318626","8849","92921","2399","mousetracking operator preview effect","0","0","0","no","false","no","1680"
"negative","undefined","1","undefined","undefined","white","no","legacy","legacy","legacy","0","relative","undefined","undefined","82","NA","0","0","0","0","0","0","0","98","98","0","15","0","no","03/08/19 09:27:03","A simple template for the mouse-tracking paradigm","yes","Experiment-FT.osexp","C:\Users\Kristen\Documents\opPreviewExperiment-master\procedure","no","mono","no","24","no","black","no","yes","1050","legacy","82","15","C:/Users/Kristen/Documents/opPreviewExperiment-master/procedure/subject-3.csv","legacy","Kafkaesque Koffka","3.2.6","mult","0","l","NA","NA","space","a","9645","NA","NA","6436","9645","2","1107","legacy","small","1024","2","48000","-16","experiment","5_3_mult_true.jpg","3","odd","legacy","318645","NA","104978","NA","NA","2397","NA","2412","95333","318645","320882","8849","92921","2399","mousetracking operator preview effect","0","0","0","no","true","no","1680"
"neutral","undefined","1","undefined","undefined","white","no","legacy","legacy","legacy","0","relative","undefined","undefined","83","NA","0","0","0","0","0","0","0","99","99","0","15","0","no","03/08/19 09:27:03","A simple template for the mouse-tracking paradigm","yes","Experiment-FT.osexp","C:\Users\Kristen\Documents\opPreviewExperiment-master\procedure","no","mono","no","24","no","black","no","yes","1050","legacy","83","15","C:/Users/Kristen/Documents/opPreviewExperiment-master/procedure/subject-3.csv","legacy","Kafkaesque Koffka","3.2.6","add","0","l","NA","NA","space","a","9645","NA","NA","6436","9645","2","1436","legacy","large","1024","2","48000","-16","experiment","6_8_add_true.jpg","3","odd","legacy","320902","NA","104978","NA","NA","2397","NA","2412","95333","320902","323294","8849","92921","2399","mousetracking operator preview effect","0","0","0","no","true","no","1680"
"neutral","undefined","1","undefined","undefined","white","no","legacy","legacy","legacy","0","relative","undefined","undefined","84","NA","0","0","0","0","0","0","0","100","100","0","15","0","no","03/08/19 09:27:03","A simple template for the mouse-tracking paradigm","yes","Experiment-FT.osexp","C:\Users\Kristen\Documents\opPreviewExperiment-master\procedure","no","mono","no","24","no","black","no","yes","1050","legacy","84","15","C:/Users/Kristen/Documents/opPreviewExperiment-master/procedure/subject-3.csv","legacy","Kafkaesque Koffka","3.2.6","mult","0","l","NA","NA","space","a","9645","NA","NA","6436","9645","2","1541","legacy","large","1024","2","48000","-16","experiment","8_4_mult_true.jpg","3","odd","legacy","323314","NA","104978","NA","NA","2397","NA","2412","95333","323314","325794","8849","92921","2399","mousetracking operator preview effect","0","0","0","no","true","no","1680"
"neutral","undefined","1","undefined","undefined","white","no","legacy","legacy","legacy","0","relative","undefined","undefined","85","NA","0","0","0","0","0","0","0","101","101","0","15","0","no","03/08/19 09:27:03","A simple template for the mouse-tracking paradigm","yes","Experiment-FT.osexp","C:\Users\Kristen\Documents\opPreviewExperiment-master\procedure","no","mono","no","24","no","black","no","yes","1050","legacy","85","15","C:/Users/Kristen/Documents/opPreviewExperiment-master/procedure/subject-3.csv","legacy","Kafkaesque Koffka","3.2.6","add","0","a","NA","NA","space","a","9645","NA","NA","6436","9645","2","1712","legacy","small","1024","2","48000","-16","experiment","5_3_add_FI.jpg","3","odd","legacy","325821","NA","104978","NA","NA","2397","NA","2412","95333","325821","328496","8849","92921","2399","mousetracking operator preview effect","0","0","0","no","false","no","1680"
"negative","undefined","1","undefined","undefined","white","no","legacy","legacy","legacy","0","relative","undefined","undefined","86","NA","0","0","0","0","0","0","0","102","102","0","15","0","no","03/08/19 09:27:03","A simple template for the mouse-tracking paradigm","yes","Experiment-FT.osexp","C:\Users\Kristen\Documents\opPreviewExperiment-master\procedure","no","mono","no","24","no","black","no","yes","1050","legacy","86","15","C:/Users/Kristen/Documents/opPreviewExperiment-master/procedure/subject-3.csv","legacy","Kafkaesque Koffka","3.2.6","mult","0","l","NA","NA","space","a","9645","NA","NA","6436","9645","2","1423","legacy","small","1024","2","48000","-16","experiment","2_7_mult_true.jpg","3","odd","legacy","328522","NA","104978","NA","NA","2397","NA","2412","95333","328522","331074","8849","92921","2399","mousetracking operator preview effect","0","0","0","no","true","no","1680"
"neutral","undefined","1","undefined","undefined","white","no","legacy","legacy","legacy","0","relative","undefined","undefined","87","NA","0","0","0","0","0","0","0","103","103","0","15","0","no","03/08/19 09:27:03","A simple template for the mouse-tracking paradigm","yes","Experiment-FT.osexp","C:\Users\Kristen\Documents\opPreviewExperiment-master\procedure","no","mono","no","24","no","black","no","yes","1050","legacy","87","15","C:/Users/Kristen/Documents/opPreviewExperiment-master/procedure/subject-3.csv","legacy","Kafkaesque Koffka","3.2.6","mult","0","l","NA","NA","space","a","9645","NA","NA","6436","9645","2","1233","legacy","large","1024","2","48000","-16","experiment","6_8_mult_true.jpg","3","odd","legacy","331095","NA","104978","NA","NA","2397","NA","2412","95333","331095","333293","8849","92921","2399","mousetracking operator preview effect","0","0","0","no","true","no","1680"
"negative","undefined","1","undefined","undefined","white","no","legacy","legacy","legacy","0","relative","undefined","undefined","88","NA","0","0","0","0","0","0","0","104","104","0","15","0","no","03/08/19 09:27:03","A simple template for the mouse-tracking paradigm","yes","Experiment-FT.osexp","C:\Users\Kristen\Documents\opPreviewExperiment-master\procedure","no","mono","no","24","no","black","no","yes","1050","legacy","88","15","C:/Users/Kristen/Documents/opPreviewExperiment-master/procedure/subject-3.csv","legacy","Kafkaesque Koffka","3.2.6","mult","0","l","NA","NA","space","a","9645","NA","NA","6436","9645","2","1100","legacy","small","1024","2","48000","-16","experiment","8_2_mult_true.jpg","3","odd","legacy","333317","NA","104978","NA","NA","2397","NA","2412","95333","333317","335542","8849","92921","2399","mousetracking operator preview effect","0","0","0","no","true","no","1680"
"neutral","undefined","1","undefined","undefined","white","no","legacy","legacy","legacy","0","relative","undefined","undefined","89","NA","0","0","0","0","0","0","0","105","105","0","15","0","no","03/08/19 09:27:03","A simple template for the mouse-tracking paradigm","yes","Experiment-FT.osexp","C:\Users\Kristen\Documents\opPreviewExperiment-master\procedure","no","mono","no","24","no","black","no","yes","1050","legacy","89","15","C:/Users/Kristen/Documents/opPreviewExperiment-master/procedure/subject-3.csv","legacy","Kafkaesque Koffka","3.2.6","add","0","l","NA","NA","space","a","9645","NA","NA","6436","9645","2","862","legacy","small","1024","2","48000","-16","experiment","5_3_add_true.jpg","3","odd","legacy","335564","NA","104978","NA","NA","2397","NA","2412","95333","335564","337389","8849","92921","2399","mousetracking operator preview effect","0","0","0","no","true","no","1680"
"neutral","undefined","1","undefined","undefined","white","no","legacy","legacy","legacy","0","relative","undefined","undefined","90","NA","0","0","0","0","0","0","0","106","106","0","15","0","no","03/08/19 09:27:03","A simple template for the mouse-tracking paradigm","yes","Experiment-FT.osexp","C:\Users\Kristen\Documents\opPreviewExperiment-master\procedure","no","mono","no","24","no","black","no","yes","1050","legacy","90","15","C:/Users/Kristen/Documents/opPreviewExperiment-master/procedure/subject-3.csv","legacy","Kafkaesque Koffka","3.2.6","add","0","l","NA","NA","space","a","9645","NA","NA","6436","9645","2","734","legacy","large","1024","2","48000","-16","experiment","9_7_add_true.jpg","3","odd","legacy","337415","NA","104978","NA","NA","2397","NA","2412","95333","337415","339113","8849","92921","2399","mousetracking operator preview effect","0","0","0","no","true","no","1680"
"neutral","undefined","1","undefined","undefined","white","no","legacy","legacy","legacy","0","relative","undefined","undefined","91","NA","0","0","0","0","0","0","0","107","107","0","15","0","no","03/08/19 09:27:03","A simple template for the mouse-tracking paradigm","yes","Experiment-FT.osexp","C:\Users\Kristen\Documents\opPreviewExperiment-master\procedure","no","mono","no","24","no","black","no","yes","1050","legacy","91","15","C:/Users/Kristen/Documents/opPreviewExperiment-master/procedure/subject-3.csv","legacy","Kafkaesque Koffka","3.2.6","mult","0","l","NA","NA","space","a","9645","NA","NA","6436","9645","2","793","legacy","small","1024","2","48000","-16","experiment","2_7_mult_true.jpg","3","odd","legacy","339138","NA","104978","NA","NA","2397","NA","2412","95333","339138","340896","8849","92921","2399","mousetracking operator preview effect","0","0","0","no","true","no","1680"
"negative","undefined","1","undefined","undefined","white","no","legacy","legacy","legacy","0","relative","undefined","undefined","92","NA","0","0","0","0","0","0","0","108","108","0","15","0","no","03/08/19 09:27:03","A simple template for the mouse-tracking paradigm","yes","Experiment-FT.osexp","C:\Users\Kristen\Documents\opPreviewExperiment-master\procedure","no","mono","no","24","no","black","no","yes","1050","legacy","92","15","C:/Users/Kristen/Documents/opPreviewExperiment-master/procedure/subject-3.csv","legacy","Kafkaesque Koffka","3.2.6","add","0","a","NA","NA","space","a","9645","NA","NA","6436","9645","2","1065","legacy","small","1024","2","48000","-16","experiment","8_2_add_FNI.jpg","3","odd","legacy","340926","NA","104978","NA","NA","2397","NA","2412","95333","340926","343130","8849","92921","2399","mousetracking operator preview effect","0","0","0","no","false","no","1680"
