"SOAcondition","acc","accuracy","average_response_time","avg_rt","background","bidi","canvas_backend","clock_backend","color_backend","compensation","coordinates","correct","correct_instruction1","count_block1_sequence","count_block2_sequence","count_block_1","count_block_2","count_breakScreen","count_experiment","count_finish","count_instruction1","count_instruction2","count_keyboard_script","count_logger","count_practiceBlock","count_practice_sequence","count_setup_script","custom_cursor","datetime","description","disable_garbage_collection","experiment_file","experiment_path","font_bold","font_family","font_italic","font_size","font_underline","foreground","form_clicks","fullscreen","height","keyboard_backend","live_row","live_row_practiceBlock","logfile","mouse_backend","opensesame_codename","opensesame_version","operation","repeat_cycle","response","response_breakScreen","response_finish","response_instruction1","response_instruction2","response_time","response_time_breakScreen","response_time_finish","response_time_instruction1","response_time_instruction2","round_decimals","rt","sampler_backend","size","sound_buf_size","sound_channels","sound_freq","sound_sample_size","start","stimulus","subject_nr","subject_parity","synth_backend","time_block1_sequence","time_block2_sequence","time_block_1","time_block_2","time_breakScreen","time_experiment","time_finish","time_instruction1","time_instruction2","time_keyboard_script","time_logger","time_practiceBlock","time_practice_sequence","time_setup_script","title","total_correct","total_response_time","total_responses","transparent_variables","truth","uniform_coordinates","width"
"neutral","undefined","1","undefined","undefined","white","no","legacy","legacy","legacy","0","relative","undefined","undefined","NA","NA","0","0","0","0","0","0","0","0","0","0","0","0","no","04/29/19 12:42:42","A simple template for the mouse-tracking paradigm","yes","Experiment-TF.osexp","C:\Users\Kristen\Documents\opPreviewExperiment-master\procedure","no","mono","no","24","no","black","no","yes","1050","legacy","0","0","C:/Users/Kristen/Documents/opPreviewExperiment-master/procedure/subject-25.csv","legacy","Kafkaesque Koffka","3.2.6","mult","0","l","NA","NA","z","NA","15196","NA","NA","15196","NA","2","2930","legacy","NA","1024","2","48000","-16","experiment","1_4_mult_F.jpg","25","odd","legacy","NA","NA","NA","NA","NA","2023","NA","2036","NA","17235","21148","17233","17235","2024","mousetracking operator preview effect","0","0","0","no","false","no","1680"
"neutral","undefined","1","undefined","undefined","white","no","legacy","legacy","legacy","0","relative","undefined","undefined","NA","NA","0","0","0","0","0","0","0","1","1","0","1","0","no","04/29/19 12:42:42","A simple template for the mouse-tracking paradigm","yes","Experiment-TF.osexp","C:\Users\Kristen\Documents\opPreviewExperiment-master\procedure","no","mono","no","24","no","black","no","yes","1050","legacy","1","1","C:/Users/Kristen/Documents/opPreviewExperiment-master/procedure/subject-25.csv","legacy","Kafkaesque Koffka","3.2.6","add","0","a","NA","NA","z","NA","15196","NA","NA","15196","NA","2","1870","legacy","NA","1024","2","48000","-16","experiment","1_4_add_T.jpg","25","odd","legacy","NA","NA","NA","NA","NA","2023","NA","2036","NA","21182","24029","17233","21181","2024","mousetracking operator preview effect","0","0","0","no","true","no","1680"
"negative","undefined","1","undefined","undefined","white","no","legacy","legacy","legacy","0","relative","undefined","undefined","NA","NA","0","0","0","0","0","0","0","2","2","0","2","0","no","04/29/19 12:42:42","A simple template for the mouse-tracking paradigm","yes","Experiment-TF.osexp","C:\Users\Kristen\Documents\opPreviewExperiment-master\procedure","no","mono","no","24","no","black","no","yes","1050","legacy","2","2","C:/Users/Kristen/Documents/opPreviewExperiment-master/procedure/subject-25.csv","legacy","Kafkaesque Koffka","3.2.6","add","0","l","NA","NA","z","NA","15196","NA","NA","15196","NA","2","8382","legacy","NA","1024","2","48000","-16","experiment","1_4_add_F.jpg","25","odd","legacy","NA","NA","NA","NA","NA","2023","NA","2036","NA","24050","33583","17233","24050","2024","mousetracking operator preview effect","0","0","0","no","false","no","1680"
"neutral","undefined","1","undefined","undefined","white","no","legacy","legacy","legacy","0","relative","undefined","undefined","NA","NA","0","0","0","0","0","0","0","3","3","0","3","0","no","04/29/19 12:42:42","A simple template for the mouse-tracking paradigm","yes","Experiment-TF.osexp","C:\Users\Kristen\Documents\opPreviewExperiment-master\procedure","no","mono","no","24","no","black","no","yes","1050","legacy","3","3","C:/Users/Kristen/Documents/opPreviewExperiment-master/procedure/subject-25.csv","legacy","Kafkaesque Koffka","3.2.6","mult","0","a","NA","NA","z","NA","15196","NA","NA","15196","NA","2","1784","legacy","NA","1024","2","48000","-16","experiment","0_3_mult_T.jpg","25","odd","legacy","NA","NA","NA","NA","NA","2023","NA","2036","NA","33603","36362","17233","33603","2024","mousetracking operator preview effect","0","0","0","no","true","no","1680"
"neutral","undefined","0","undefined","undefined","white","no","legacy","legacy","legacy","0","relative","undefined","undefined","NA","NA","0","0","0","0","0","0","0","4","4","0","4","0","no","04/29/19 12:42:42","A simple template for the mouse-tracking paradigm","yes","Experiment-TF.osexp","C:\Users\Kristen\Documents\opPreviewExperiment-master\procedure","no","mono","no","24","no","black","no","yes","1050","legacy","4","4","C:/Users/Kristen/Documents/opPreviewExperiment-master/procedure/subject-25.csv","legacy","Kafkaesque Koffka","3.2.6","mult","0","a","NA","NA","z","NA","15196","NA","NA","15196","NA","2","1086","legacy","NA","1024","2","48000","-16","experiment","0_3_mult_F.jpg","25","odd","legacy","NA","NA","NA","NA","NA","2023","NA","2036","NA","36389","39472","17233","36389","2024","mousetracking operator preview effect","0","0","0","no","false","no","1680"
"neutral","undefined","1","undefined","undefined","white","no","legacy","legacy","legacy","0","relative","undefined","undefined","NA","NA","0","0","0","0","0","0","0","5","5","0","5","0","no","04/29/19 12:42:42","A simple template for the mouse-tracking paradigm","yes","Experiment-TF.osexp","C:\Users\Kristen\Documents\opPreviewExperiment-master\procedure","no","mono","no","24","no","black","no","yes","1050","legacy","5","5","C:/Users/Kristen/Documents/opPreviewExperiment-master/procedure/subject-25.csv","legacy","Kafkaesque Koffka","3.2.6","add","0","a","NA","NA","z","NA","15196","NA","NA","15196","NA","2","2727","legacy","NA","1024","2","48000","-16","experiment","0_3_add_T.jpg","25","odd","legacy","NA","NA","NA","NA","NA","2023","NA","2036","NA","39514","43225","17233","39514","2024","mousetracking operator preview effect","0","0","0","no","true","no","1680"
"negative","undefined","1","undefined","undefined","white","no","legacy","legacy","legacy","0","relative","undefined","undefined","NA","NA","0","0","0","0","0","0","0","6","6","0","6","0","no","04/29/19 12:42:42","A simple template for the mouse-tracking paradigm","yes","Experiment-TF.osexp","C:\Users\Kristen\Documents\opPreviewExperiment-master\procedure","no","mono","no","24","no","black","no","yes","1050","legacy","6","6","C:/Users/Kristen/Documents/opPreviewExperiment-master/procedure/subject-25.csv","legacy","Kafkaesque Koffka","3.2.6","mult","0","l","NA","NA","z","NA","15196","NA","NA","15196","NA","2","2039","legacy","NA","1024","2","48000","-16","experiment","0_3_mult_F.jpg","25","odd","legacy","NA","NA","NA","NA","NA","2023","NA","2036","NA","43253","46440","17233","43253","2024","mousetracking operator preview effect","0","0","0","no","false","no","1680"
"negative","undefined","1","undefined","undefined","white","no","legacy","legacy","legacy","0","relative","undefined","undefined","NA","NA","0","0","0","0","0","0","0","7","7","0","7","0","no","04/29/19 12:42:42","A simple template for the mouse-tracking paradigm","yes","Experiment-TF.osexp","C:\Users\Kristen\Documents\opPreviewExperiment-master\procedure","no","mono","no","24","no","black","no","yes","1050","legacy","7","7","C:/Users/Kristen/Documents/opPreviewExperiment-master/procedure/subject-25.csv","legacy","Kafkaesque Koffka","3.2.6","mult","0","l","NA","NA","z","NA","15196","NA","NA","15196","NA","2","1984","legacy","NA","1024","2","48000","-16","experiment","1_4_mult_F.jpg","25","odd","legacy","NA","NA","NA","NA","NA","2023","NA","2036","NA","46461","49590","17233","46461","2024","mousetracking operator preview effect","0","0","0","no","false","no","1680"
"negative","undefined","1","undefined","undefined","white","no","legacy","legacy","legacy","0","relative","undefined","undefined","NA","NA","0","0","0","0","0","0","0","8","8","0","8","0","no","04/29/19 12:42:42","A simple template for the mouse-tracking paradigm","yes","Experiment-TF.osexp","C:\Users\Kristen\Documents\opPreviewExperiment-master\procedure","no","mono","no","24","no","black","no","yes","1050","legacy","8","8","C:/Users/Kristen/Documents/opPreviewExperiment-master/procedure/subject-25.csv","legacy","Kafkaesque Koffka","3.2.6","add","0","a","NA","NA","z","NA","15196","NA","NA","15196","NA","2","1175","legacy","NA","1024","2","48000","-16","experiment","1_4_add_T.jpg","25","odd","legacy","NA","NA","NA","NA","NA","2023","NA","2036","NA","49613","51935","17233","49613","2024","mousetracking operator preview effect","0","0","0","no","true","no","1680"
"neutral","undefined","1","undefined","undefined","white","no","legacy","legacy","legacy","0","relative","undefined","undefined","NA","NA","0","0","0","0","0","0","0","9","9","0","9","0","no","04/29/19 12:42:42","A simple template for the mouse-tracking paradigm","yes","Experiment-TF.osexp","C:\Users\Kristen\Documents\opPreviewExperiment-master\procedure","no","mono","no","24","no","black","no","yes","1050","legacy","9","9","C:/Users/Kristen/Documents/opPreviewExperiment-master/procedure/subject-25.csv","legacy","Kafkaesque Koffka","3.2.6","mult","0","a","NA","NA","z","NA","15196","NA","NA","15196","NA","2","1732","legacy","NA","1024","2","48000","-16","experiment","1_4_mult_T.jpg","25","odd","legacy","NA","NA","NA","NA","NA","2023","NA","2036","NA","51948","54659","17233","51948","2024","mousetracking operator preview effect","0","0","0","no","true","no","1680"
"negative","undefined","1","undefined","undefined","white","no","legacy","legacy","legacy","0","relative","undefined","undefined","NA","NA","0","0","0","0","0","0","0","10","10","0","10","0","no","04/29/19 12:42:42","A simple template for the mouse-tracking paradigm","yes","Experiment-TF.osexp","C:\Users\Kristen\Documents\opPreviewExperiment-master\procedure","no","mono","no","24","no","black","no","yes","1050","legacy","10","10","C:/Users/Kristen/Documents/opPreviewExperiment-master/procedure/subject-25.csv","legacy","Kafkaesque Koffka","3.2.6","mult","0","a","NA","NA","z","NA","15196","NA","NA","15196","NA","2","729","legacy","NA","1024","2","48000","-16","experiment","1_4_mult_T.jpg","25","odd","legacy","NA","NA","NA","NA","NA","2023","NA","2036","NA","54679","56555","17233","54679","2024","mousetracking operator preview effect","0","0","0","no","true","no","1680"
"negative","undefined","1","undefined","undefined","white","no","legacy","legacy","legacy","0","relative","undefined","undefined","NA","NA","0","0","0","0","0","0","0","11","11","0","11","0","no","04/29/19 12:42:42","A simple template for the mouse-tracking paradigm","yes","Experiment-TF.osexp","C:\Users\Kristen\Documents\opPreviewExperiment-master\procedure","no","mono","no","24","no","black","no","yes","1050","legacy","11","11","C:/Users/Kristen/Documents/opPreviewExperiment-master/procedure/subject-25.csv","legacy","Kafkaesque Koffka","3.2.6","mult","0","a","NA","NA","z","NA","15196","NA","NA","15196","NA","2","1466","legacy","NA","1024","2","48000","-16","experiment","0_3_mult_T.jpg","25","odd","legacy","NA","NA","NA","NA","NA","2023","NA","2036","NA","56577","59200","17233","56577","2024","mousetracking operator preview effect","0","0","0","no","true","no","1680"
"neutral","undefined","1","undefined","undefined","white","no","legacy","legacy","legacy","0","relative","undefined","undefined","NA","NA","0","0","0","0","0","0","0","12","12","0","12","0","no","04/29/19 12:42:42","A simple template for the mouse-tracking paradigm","yes","Experiment-TF.osexp","C:\Users\Kristen\Documents\opPreviewExperiment-master\procedure","no","mono","no","24","no","black","no","yes","1050","legacy","12","12","C:/Users/Kristen/Documents/opPreviewExperiment-master/procedure/subject-25.csv","legacy","Kafkaesque Koffka","3.2.6","add","0","l","NA","NA","z","NA","15196","NA","NA","15196","NA","2","1202","legacy","NA","1024","2","48000","-16","experiment","1_4_add_F.jpg","25","odd","legacy","NA","NA","NA","NA","NA","2023","NA","2036","NA","59227","61408","17233","59227","2024","mousetracking operator preview effect","0","0","0","no","false","no","1680"
"neutral","undefined","1","undefined","undefined","white","no","legacy","legacy","legacy","0","relative","undefined","undefined","NA","NA","0","0","0","0","0","0","0","13","13","0","13","0","no","04/29/19 12:42:42","A simple template for the mouse-tracking paradigm","yes","Experiment-TF.osexp","C:\Users\Kristen\Documents\opPreviewExperiment-master\procedure","no","mono","no","24","no","black","no","yes","1050","legacy","13","13","C:/Users/Kristen/Documents/opPreviewExperiment-master/procedure/subject-25.csv","legacy","Kafkaesque Koffka","3.2.6","add","0","l","NA","NA","z","NA","15196","NA","NA","15196","NA","2","998","legacy","NA","1024","2","48000","-16","experiment","0_3_add_F.jpg","25","odd","legacy","NA","NA","NA","NA","NA","2023","NA","2036","NA","61436","63417","17233","61436","2024","mousetracking operator preview effect","0","0","0","no","false","no","1680"
"negative","undefined","1","undefined","undefined","white","no","legacy","legacy","legacy","0","relative","undefined","undefined","NA","NA","0","0","0","0","0","0","0","14","14","0","14","0","no","04/29/19 12:42:42","A simple template for the mouse-tracking paradigm","yes","Experiment-TF.osexp","C:\Users\Kristen\Documents\opPreviewExperiment-master\procedure","no","mono","no","24","no","black","no","yes","1050","legacy","14","14","C:/Users/Kristen/Documents/opPreviewExperiment-master/procedure/subject-25.csv","legacy","Kafkaesque Koffka","3.2.6","add","0","a","NA","NA","z","NA","15196","NA","NA","15196","NA","2","998","legacy","NA","1024","2","48000","-16","experiment","0_3_add_T.jpg","25","odd","legacy","NA","NA","NA","NA","NA","2023","NA","2036","NA","63439","65580","17233","63439","2024","mousetracking operator preview effect","0","0","0","no","true","no","1680"
"negative","undefined","1","undefined","undefined","white","no","legacy","legacy","legacy","0","relative","undefined","undefined","NA","NA","0","0","0","0","0","0","0","15","15","0","15","0","no","04/29/19 12:42:42","A simple template for the mouse-tracking paradigm","yes","Experiment-TF.osexp","C:\Users\Kristen\Documents\opPreviewExperiment-master\procedure","no","mono","no","24","no","black","no","yes","1050","legacy","15","15","C:/Users/Kristen/Documents/opPreviewExperiment-master/procedure/subject-25.csv","legacy","Kafkaesque Koffka","3.2.6","add","0","l","NA","NA","z","NA","15196","NA","NA","15196","NA","2","1003","legacy","NA","1024","2","48000","-16","experiment","0_3_add_F.jpg","25","odd","legacy","NA","NA","NA","NA","NA","2023","NA","2036","NA","65608","67764","17233","65608","2024","mousetracking operator preview effect","0","0","0","no","false","no","1680"
"negative","undefined","1","undefined","undefined","white","no","legacy","legacy","legacy","0","relative","undefined","undefined","0","NA","0","0","0","0","0","0","0","16","16","0","15","0","no","04/29/19 12:42:42","A simple template for the mouse-tracking paradigm","yes","Experiment-TF.osexp","C:\Users\Kristen\Documents\opPreviewExperiment-master\procedure","no","mono","no","24","no","black","no","yes","1050","legacy","0","15","C:/Users/Kristen/Documents/opPreviewExperiment-master/procedure/subject-25.csv","legacy","Kafkaesque Koffka","3.2.6","mult","0","a","NA","NA","z","l","8088","NA","NA","15196","8088","2","1529","legacy","small","1024","2","48000","-16","experiment","8_2_mult_true.jpg","25","odd","legacy","75880","NA","75876","NA","NA","2023","NA","2036","67787","75880","78556","17233","65608","2024","mousetracking operator preview effect","0","0","0","no","true","no","1680"
"neutral","undefined","1","undefined","undefined","white","no","legacy","legacy","legacy","0","relative","undefined","undefined","1","NA","0","0","0","0","0","0","0","17","17","0","15","0","no","04/29/19 12:42:42","A simple template for the mouse-tracking paradigm","yes","Experiment-TF.osexp","C:\Users\Kristen\Documents\opPreviewExperiment-master\procedure","no","mono","no","24","no","black","no","yes","1050","legacy","1","15","C:/Users/Kristen/Documents/opPreviewExperiment-master/procedure/subject-25.csv","legacy","Kafkaesque Koffka","3.2.6","add","0","l","NA","NA","z","l","8088","NA","NA","15196","8088","2","1889","legacy","large","1024","2","48000","-16","experiment","9_7_add_FI.jpg","25","odd","legacy","78578","NA","75876","NA","NA","2023","NA","2036","67787","78578","81452","17233","65608","2024","mousetracking operator preview effect","0","0","0","no","false","no","1680"
"neutral","undefined","1","undefined","undefined","white","no","legacy","legacy","legacy","0","relative","undefined","undefined","2","NA","0","0","0","0","0","0","0","18","18","0","15","0","no","04/29/19 12:42:42","A simple template for the mouse-tracking paradigm","yes","Experiment-TF.osexp","C:\Users\Kristen\Documents\opPreviewExperiment-master\procedure","no","mono","no","24","no","black","no","yes","1050","legacy","2","15","C:/Users/Kristen/Documents/opPreviewExperiment-master/procedure/subject-25.csv","legacy","Kafkaesque Koffka","3.2.6","add","0","a","NA","NA","z","l","8088","NA","NA","15196","8088","2","1522","legacy","small","1024","2","48000","-16","experiment","3_6_add_true.jpg","25","odd","legacy","81472","NA","75876","NA","NA","2023","NA","2036","67787","81472","83971","17233","65608","2024","mousetracking operator preview effect","0","0","0","no","true","no","1680"
"neutral","undefined","0","undefined","undefined","white","no","legacy","legacy","legacy","0","relative","undefined","undefined","3","NA","0","0","0","0","0","0","0","19","19","0","15","0","no","04/29/19 12:42:42","A simple template for the mouse-tracking paradigm","yes","Experiment-TF.osexp","C:\Users\Kristen\Documents\opPreviewExperiment-master\procedure","no","mono","no","24","no","black","no","yes","1050","legacy","3","15","C:/Users/Kristen/Documents/opPreviewExperiment-master/procedure/subject-25.csv","legacy","Kafkaesque Koffka","3.2.6","add","0","a","NA","NA","z","l","8088","NA","NA","15196","8088","2","1390","legacy","large","1024","2","48000","-16","experiment","6_8_add_FNI.jpg","25","odd","legacy","83991","NA","75876","NA","NA","2023","NA","2036","67787","83991","87376","17233","65608","2024","mousetracking operator preview effect","0","0","0","no","false","no","1680"
"negative","undefined","1","undefined","undefined","white","no","legacy","legacy","legacy","0","relative","undefined","undefined","4","NA","0","0","0","0","0","0","0","20","20","0","15","0","no","04/29/19 12:42:42","A simple template for the mouse-tracking paradigm","yes","Experiment-TF.osexp","C:\Users\Kristen\Documents\opPreviewExperiment-master\procedure","no","mono","no","24","no","black","no","yes","1050","legacy","4","15","C:/Users/Kristen/Documents/opPreviewExperiment-master/procedure/subject-25.csv","legacy","Kafkaesque Koffka","3.2.6","mult","0","l","NA","NA","z","l","8088","NA","NA","15196","8088","2","1305","legacy","small","1024","2","48000","-16","experiment","5_3_mult_FNI.jpg","25","odd","legacy","87417","NA","75876","NA","NA","2023","NA","2036","67787","87417","89872","17233","65608","2024","mousetracking operator preview effect","0","0","0","no","false","no","1680"
"negative","undefined","0","undefined","undefined","white","no","legacy","legacy","legacy","0","relative","undefined","undefined","5","NA","0","0","0","0","0","0","0","21","21","0","15","0","no","04/29/19 12:42:42","A simple template for the mouse-tracking paradigm","yes","Experiment-TF.osexp","C:\Users\Kristen\Documents\opPreviewExperiment-master\procedure","no","mono","no","24","no","black","no","yes","1050","legacy","5","15","C:/Users/Kristen/Documents/opPreviewExperiment-master/procedure/subject-25.csv","legacy","Kafkaesque Koffka","3.2.6","add","0","a","NA","NA","z","l","8088","NA","NA","15196","8088","2","901","legacy","small","1024","2","48000","-16","experiment","2_7_add_FI.jpg","25","odd","legacy","89901","NA","75876","NA","NA","2023","NA","2036","67787","89901","92970","17233","65608","2024","mousetracking operator preview effect","0","0","0","no","false","no","1680"
"negative","undefined","1","undefined","undefined","white","no","legacy","legacy","legacy","0","relative","undefined","undefined","6","NA","0","0","0","0","0","0","0","22","22","0","15","0","no","04/29/19 12:42:42","A simple template for the mouse-tracking paradigm","yes","Experiment-TF.osexp","C:\Users\Kristen\Documents\opPreviewExperiment-master\procedure","no","mono","no","24","no","black","no","yes","1050","legacy","6","15","C:/Users/Kristen/Documents/opPreviewExperiment-master/procedure/subject-25.csv","legacy","Kafkaesque Koffka","3.2.6","mult","0","a","NA","NA","z","l","8088","NA","NA","15196","8088","2","2025","legacy","large","1024","2","48000","-16","experiment","6_8_mult_true.jpg","25","odd","legacy","93009","NA","75876","NA","NA","2023","NA","2036","67787","93009","96191","17233","65608","2024","mousetracking operator preview effect","0","0","0","no","true","no","1680"
"negative","undefined","1","undefined","undefined","white","no","legacy","legacy","legacy","0","relative","undefined","undefined","7","NA","0","0","0","0","0","0","0","23","23","0","15","0","no","04/29/19 12:42:42","A simple template for the mouse-tracking paradigm","yes","Experiment-TF.osexp","C:\Users\Kristen\Documents\opPreviewExperiment-master\procedure","no","mono","no","24","no","black","no","yes","1050","legacy","7","15","C:/Users/Kristen/Documents/opPreviewExperiment-master/procedure/subject-25.csv","legacy","Kafkaesque Koffka","3.2.6","add","0","l","NA","NA","z","l","8088","NA","NA","15196","8088","2","1294","legacy","small","1024","2","48000","-16","experiment","3_6_add_FI.jpg","25","odd","legacy","96219","NA","75876","NA","NA","2023","NA","2036","67787","96219","98662","17233","65608","2024","mousetracking operator preview effect","0","0","0","no","false","no","1680"
"neutral","undefined","1","undefined","undefined","white","no","legacy","legacy","legacy","0","relative","undefined","undefined","8","NA","0","0","0","0","0","0","0","24","24","0","15","0","no","04/29/19 12:42:42","A simple template for the mouse-tracking paradigm","yes","Experiment-TF.osexp","C:\Users\Kristen\Documents\opPreviewExperiment-master\procedure","no","mono","no","24","no","black","no","yes","1050","legacy","8","15","C:/Users/Kristen/Documents/opPreviewExperiment-master/procedure/subject-25.csv","legacy","Kafkaesque Koffka","3.2.6","add","0","a","NA","NA","z","l","8088","NA","NA","15196","8088","2","3719","legacy","large","1024","2","48000","-16","experiment","4_9_add_true.jpg","25","odd","legacy","98677","NA","75876","NA","NA","2023","NA","2036","67787","98677","103372","17233","65608","2024","mousetracking operator preview effect","0","0","0","no","true","no","1680"
"neutral","undefined","1","undefined","undefined","white","no","legacy","legacy","legacy","0","relative","undefined","undefined","9","NA","0","0","0","0","0","0","0","25","25","0","15","0","no","04/29/19 12:42:42","A simple template for the mouse-tracking paradigm","yes","Experiment-TF.osexp","C:\Users\Kristen\Documents\opPreviewExperiment-master\procedure","no","mono","no","24","no","black","no","yes","1050","legacy","9","15","C:/Users/Kristen/Documents/opPreviewExperiment-master/procedure/subject-25.csv","legacy","Kafkaesque Koffka","3.2.6","mult","0","a","NA","NA","z","l","8088","NA","NA","15196","8088","2","908","legacy","large","1024","2","48000","-16","experiment","9_7_mult_true.jpg","25","odd","legacy","103402","NA","75876","NA","NA","2023","NA","2036","67787","103402","105286","17233","65608","2024","mousetracking operator preview effect","0","0","0","no","true","no","1680"
"negative","undefined","1","undefined","undefined","white","no","legacy","legacy","legacy","0","relative","undefined","undefined","10","NA","0","0","0","0","0","0","0","26","26","0","15","0","no","04/29/19 12:42:42","A simple template for the mouse-tracking paradigm","yes","Experiment-TF.osexp","C:\Users\Kristen\Documents\opPreviewExperiment-master\procedure","no","mono","no","24","no","black","no","yes","1050","legacy","10","15","C:/Users/Kristen/Documents/opPreviewExperiment-master/procedure/subject-25.csv","legacy","Kafkaesque Koffka","3.2.6","add","0","a","NA","NA","z","l","8088","NA","NA","15196","8088","2","1312","legacy","small","1024","2","48000","-16","experiment","3_6_add_true.jpg","25","odd","legacy","105312","NA","75876","NA","NA","2023","NA","2036","67787","105312","107779","17233","65608","2024","mousetracking operator preview effect","0","0","0","no","true","no","1680"
"negative","undefined","1","undefined","undefined","white","no","legacy","legacy","legacy","0","relative","undefined","undefined","11","NA","0","0","0","0","0","0","0","27","27","0","15","0","no","04/29/19 12:42:42","A simple template for the mouse-tracking paradigm","yes","Experiment-TF.osexp","C:\Users\Kristen\Documents\opPreviewExperiment-master\procedure","no","mono","no","24","no","black","no","yes","1050","legacy","11","15","C:/Users/Kristen/Documents/opPreviewExperiment-master/procedure/subject-25.csv","legacy","Kafkaesque Koffka","3.2.6","add","0","a","NA","NA","z","l","8088","NA","NA","15196","8088","2","3868","legacy","large","1024","2","48000","-16","experiment","6_8_add_true.jpg","25","odd","legacy","107801","NA","75876","NA","NA","2023","NA","2036","67787","107801","112820","17233","65608","2024","mousetracking operator preview effect","0","0","0","no","true","no","1680"
"neutral","undefined","1","undefined","undefined","white","no","legacy","legacy","legacy","0","relative","undefined","undefined","12","NA","0","0","0","0","0","0","0","28","28","0","15","0","no","04/29/19 12:42:42","A simple template for the mouse-tracking paradigm","yes","Experiment-TF.osexp","C:\Users\Kristen\Documents\opPreviewExperiment-master\procedure","no","mono","no","24","no","black","no","yes","1050","legacy","12","15","C:/Users/Kristen/Documents/opPreviewExperiment-master/procedure/subject-25.csv","legacy","Kafkaesque Koffka","3.2.6","add","0","l","NA","NA","z","l","8088","NA","NA","15196","8088","2","1694","legacy","small","1024","2","48000","-16","experiment","2_7_add_FNI.jpg","25","odd","legacy","112856","NA","75876","NA","NA","2023","NA","2036","67787","112856","115528","17233","65608","2024","mousetracking operator preview effect","0","0","0","no","false","no","1680"
"negative","undefined","1","undefined","undefined","white","no","legacy","legacy","legacy","0","relative","undefined","undefined","13","NA","0","0","0","0","0","0","0","29","29","0","15","0","no","04/29/19 12:42:42","A simple template for the mouse-tracking paradigm","yes","Experiment-TF.osexp","C:\Users\Kristen\Documents\opPreviewExperiment-master\procedure","no","mono","no","24","no","black","no","yes","1050","legacy","13","15","C:/Users/Kristen/Documents/opPreviewExperiment-master/procedure/subject-25.csv","legacy","Kafkaesque Koffka","3.2.6","add","0","a","NA","NA","z","l","8088","NA","NA","15196","8088","2","8152","legacy","large","1024","2","48000","-16","experiment","6_8_add_true.jpg","25","odd","legacy","115552","NA","75876","NA","NA","2023","NA","2036","67787","115552","124852","17233","65608","2024","mousetracking operator preview effect","0","0","0","no","true","no","1680"
"neutral","undefined","1","undefined","undefined","white","no","legacy","legacy","legacy","0","relative","undefined","undefined","14","NA","0","0","0","0","0","0","0","30","30","0","15","0","no","04/29/19 12:42:42","A simple template for the mouse-tracking paradigm","yes","Experiment-TF.osexp","C:\Users\Kristen\Documents\opPreviewExperiment-master\procedure","no","mono","no","24","no","black","no","yes","1050","legacy","14","15","C:/Users/Kristen/Documents/opPreviewExperiment-master/procedure/subject-25.csv","legacy","Kafkaesque Koffka","3.2.6","add","0","a","NA","NA","z","l","8088","NA","NA","15196","8088","2","3525","legacy","large","1024","2","48000","-16","experiment","9_7_add_true.jpg","25","odd","legacy","124867","NA","75876","NA","NA","2023","NA","2036","67787","124867","129365","17233","65608","2024","mousetracking operator preview effect","0","0","0","no","true","no","1680"
"neutral","undefined","1","undefined","undefined","white","no","legacy","legacy","legacy","0","relative","undefined","undefined","15","NA","0","0","0","0","0","0","0","31","31","0","15","0","no","04/29/19 12:42:42","A simple template for the mouse-tracking paradigm","yes","Experiment-TF.osexp","C:\Users\Kristen\Documents\opPreviewExperiment-master\procedure","no","mono","no","24","no","black","no","yes","1050","legacy","15","15","C:/Users/Kristen/Documents/opPreviewExperiment-master/procedure/subject-25.csv","legacy","Kafkaesque Koffka","3.2.6","mult","0","l","NA","NA","z","l","8088","NA","NA","15196","8088","2","2196","legacy","large","1024","2","48000","-16","experiment","9_7_mult_FNI.jpg","25","odd","legacy","129379","NA","75876","NA","NA","2023","NA","2036","67787","129379","132546","17233","65608","2024","mousetracking operator preview effect","0","0","0","no","false","no","1680"
"negative","undefined","1","undefined","undefined","white","no","legacy","legacy","legacy","0","relative","undefined","undefined","16","NA","0","0","0","0","0","0","0","32","32","0","15","0","no","04/29/19 12:42:42","A simple template for the mouse-tracking paradigm","yes","Experiment-TF.osexp","C:\Users\Kristen\Documents\opPreviewExperiment-master\procedure","no","mono","no","24","no","black","no","yes","1050","legacy","16","15","C:/Users/Kristen/Documents/opPreviewExperiment-master/procedure/subject-25.csv","legacy","Kafkaesque Koffka","3.2.6","mult","0","a","NA","NA","z","l","8088","NA","NA","15196","8088","2","1234","legacy","large","1024","2","48000","-16","experiment","8_4_mult_true.jpg","25","odd","legacy","132569","NA","75876","NA","NA","2023","NA","2036","67787","132569","134940","17233","65608","2024","mousetracking operator preview effect","0","0","0","no","true","no","1680"
"negative","undefined","1","undefined","undefined","white","no","legacy","legacy","legacy","0","relative","undefined","undefined","17","NA","0","0","0","0","0","0","0","33","33","0","15","0","no","04/29/19 12:42:42","A simple template for the mouse-tracking paradigm","yes","Experiment-TF.osexp","C:\Users\Kristen\Documents\opPreviewExperiment-master\procedure","no","mono","no","24","no","black","no","yes","1050","legacy","17","15","C:/Users/Kristen/Documents/opPreviewExperiment-master/procedure/subject-25.csv","legacy","Kafkaesque Koffka","3.2.6","mult","0","l","NA","NA","z","l","8088","NA","NA","15196","8088","2","1304","legacy","small","1024","2","48000","-16","experiment","2_7_mult_FNI.jpg","25","odd","legacy","134971","NA","75876","NA","NA","2023","NA","2036","67787","134971","137429","17233","65608","2024","mousetracking operator preview effect","0","0","0","no","false","no","1680"
"negative","undefined","1","undefined","undefined","white","no","legacy","legacy","legacy","0","relative","undefined","undefined","18","NA","0","0","0","0","0","0","0","34","34","0","15","0","no","04/29/19 12:42:42","A simple template for the mouse-tracking paradigm","yes","Experiment-TF.osexp","C:\Users\Kristen\Documents\opPreviewExperiment-master\procedure","no","mono","no","24","no","black","no","yes","1050","legacy","18","15","C:/Users/Kristen/Documents/opPreviewExperiment-master/procedure/subject-25.csv","legacy","Kafkaesque Koffka","3.2.6","mult","0","a","NA","NA","z","l","8088","NA","NA","15196","8088","2","2657","legacy","small","1024","2","48000","-16","experiment","3_6_mult_true.jpg","25","odd","legacy","137449","NA","75876","NA","NA","2023","NA","2036","67787","137449","141248","17233","65608","2024","mousetracking operator preview effect","0","0","0","no","true","no","1680"
"neutral","undefined","1","undefined","undefined","white","no","legacy","legacy","legacy","0","relative","undefined","undefined","19","NA","0","0","0","0","0","0","0","35","35","0","15","0","no","04/29/19 12:42:42","A simple template for the mouse-tracking paradigm","yes","Experiment-TF.osexp","C:\Users\Kristen\Documents\opPreviewExperiment-master\procedure","no","mono","no","24","no","black","no","yes","1050","legacy","19","15","C:/Users/Kristen/Documents/opPreviewExperiment-master/procedure/subject-25.csv","legacy","Kafkaesque Koffka","3.2.6","mult","0","l","NA","NA","z","l","8088","NA","NA","15196","8088","2","1038","legacy","small","1024","2","48000","-16","experiment","8_2_mult_FNI.jpg","25","odd","legacy","141269","NA","75876","NA","NA","2023","NA","2036","67787","141269","143283","17233","65608","2024","mousetracking operator preview effect","0","0","0","no","false","no","1680"
"neutral","undefined","1","undefined","undefined","white","no","legacy","legacy","legacy","0","relative","undefined","undefined","20","NA","0","0","0","0","0","0","0","36","36","0","15","0","no","04/29/19 12:42:42","A simple template for the mouse-tracking paradigm","yes","Experiment-TF.osexp","C:\Users\Kristen\Documents\opPreviewExperiment-master\procedure","no","mono","no","24","no","black","no","yes","1050","legacy","20","15","C:/Users/Kristen/Documents/opPreviewExperiment-master/procedure/subject-25.csv","legacy","Kafkaesque Koffka","3.2.6","add","0","a","NA","NA","z","l","8088","NA","NA","15196","8088","2","2065","legacy","small","1024","2","48000","-16","experiment","8_2_add_true.jpg","25","odd","legacy","143305","NA","75876","NA","NA","2023","NA","2036","67787","143305","146347","17233","65608","2024","mousetracking operator preview effect","0","0","0","no","true","no","1680"
"neutral","undefined","1","undefined","undefined","white","no","legacy","legacy","legacy","0","relative","undefined","undefined","21","NA","0","0","0","0","0","0","0","37","37","0","15","0","no","04/29/19 12:42:42","A simple template for the mouse-tracking paradigm","yes","Experiment-TF.osexp","C:\Users\Kristen\Documents\opPreviewExperiment-master\procedure","no","mono","no","24","no","black","no","yes","1050","legacy","21","15","C:/Users/Kristen/Documents/opPreviewExperiment-master/procedure/subject-25.csv","legacy","Kafkaesque Koffka","3.2.6","add","0","l","NA","NA","z","l","8088","NA","NA","15196","8088","2","1229","legacy","small","1024","2","48000","-16","experiment","5_3_add_FI.jpg","25","odd","legacy","146366","NA","75876","NA","NA","2023","NA","2036","67787","146366","148572","17233","65608","2024","mousetracking operator preview effect","0","0","0","no","false","no","1680"
"neutral","undefined","1","undefined","undefined","white","no","legacy","legacy","legacy","0","relative","undefined","undefined","22","NA","0","0","0","0","0","0","0","38","38","0","15","0","no","04/29/19 12:42:42","A simple template for the mouse-tracking paradigm","yes","Experiment-TF.osexp","C:\Users\Kristen\Documents\opPreviewExperiment-master\procedure","no","mono","no","24","no","black","no","yes","1050","legacy","22","15","C:/Users/Kristen/Documents/opPreviewExperiment-master/procedure/subject-25.csv","legacy","Kafkaesque Koffka","3.2.6","mult","0","a","NA","NA","z","l","8088","NA","NA","15196","8088","2","2584","legacy","large","1024","2","48000","-16","experiment","6_8_mult_true.jpg","25","odd","legacy","148594","NA","75876","NA","NA","2023","NA","2036","67787","148594","152156","17233","65608","2024","mousetracking operator preview effect","0","0","0","no","true","no","1680"
"negative","undefined","1","undefined","undefined","white","no","legacy","legacy","legacy","0","relative","undefined","undefined","23","NA","0","0","0","0","0","0","0","39","39","0","15","0","no","04/29/19 12:42:42","A simple template for the mouse-tracking paradigm","yes","Experiment-TF.osexp","C:\Users\Kristen\Documents\opPreviewExperiment-master\procedure","no","mono","no","24","no","black","no","yes","1050","legacy","23","15","C:/Users/Kristen/Documents/opPreviewExperiment-master/procedure/subject-25.csv","legacy","Kafkaesque Koffka","3.2.6","mult","0","a","NA","NA","z","l","8088","NA","NA","15196","8088","2","1677","legacy","small","1024","2","48000","-16","experiment","3_6_mult_true.jpg","25","odd","legacy","152183","NA","75876","NA","NA","2023","NA","2036","67787","152183","155013","17233","65608","2024","mousetracking operator preview effect","0","0","0","no","true","no","1680"
"neutral","undefined","1","undefined","undefined","white","no","legacy","legacy","legacy","0","relative","undefined","undefined","24","NA","0","0","0","0","0","0","0","40","40","0","15","0","no","04/29/19 12:42:42","A simple template for the mouse-tracking paradigm","yes","Experiment-TF.osexp","C:\Users\Kristen\Documents\opPreviewExperiment-master\procedure","no","mono","no","24","no","black","no","yes","1050","legacy","24","15","C:/Users/Kristen/Documents/opPreviewExperiment-master/procedure/subject-25.csv","legacy","Kafkaesque Koffka","3.2.6","mult","0","l","NA","NA","z","l","8088","NA","NA","15196","8088","2","1263","legacy","large","1024","2","48000","-16","experiment","8_4_mult_FNI.jpg","25","odd","legacy","155034","NA","75876","NA","NA","2023","NA","2036","67787","155034","157274","17233","65608","2024","mousetracking operator preview effect","0","0","0","no","false","no","1680"
"negative","undefined","1","undefined","undefined","white","no","legacy","legacy","legacy","0","relative","undefined","undefined","25","NA","0","0","0","0","0","0","0","41","41","0","15","0","no","04/29/19 12:42:42","A simple template for the mouse-tracking paradigm","yes","Experiment-TF.osexp","C:\Users\Kristen\Documents\opPreviewExperiment-master\procedure","no","mono","no","24","no","black","no","yes","1050","legacy","25","15","C:/Users/Kristen/Documents/opPreviewExperiment-master/procedure/subject-25.csv","legacy","Kafkaesque Koffka","3.2.6","mult","0","l","NA","NA","z","l","8088","NA","NA","15196","8088","2","1187","legacy","small","1024","2","48000","-16","experiment","8_2_mult_FI.jpg","25","odd","legacy","157296","NA","75876","NA","NA","2023","NA","2036","67787","157296","159632","17233","65608","2024","mousetracking operator preview effect","0","0","0","no","false","no","1680"
"neutral","undefined","1","undefined","undefined","white","no","legacy","legacy","legacy","0","relative","undefined","undefined","26","NA","0","0","0","0","0","0","0","42","42","0","15","0","no","04/29/19 12:42:42","A simple template for the mouse-tracking paradigm","yes","Experiment-TF.osexp","C:\Users\Kristen\Documents\opPreviewExperiment-master\procedure","no","mono","no","24","no","black","no","yes","1050","legacy","26","15","C:/Users/Kristen/Documents/opPreviewExperiment-master/procedure/subject-25.csv","legacy","Kafkaesque Koffka","3.2.6","add","0","a","NA","NA","z","l","8088","NA","NA","15196","8088","2","1125","legacy","large","1024","2","48000","-16","experiment","6_8_add_true.jpg","25","odd","legacy","159662","NA","75876","NA","NA","2023","NA","2036","67787","159662","161774","17233","65608","2024","mousetracking operator preview effect","0","0","0","no","true","no","1680"
"negative","undefined","1","undefined","undefined","white","no","legacy","legacy","legacy","0","relative","undefined","undefined","27","NA","0","0","0","0","0","0","0","43","43","0","15","0","no","04/29/19 12:42:42","A simple template for the mouse-tracking paradigm","yes","Experiment-TF.osexp","C:\Users\Kristen\Documents\opPreviewExperiment-master\procedure","no","mono","no","24","no","black","no","yes","1050","legacy","27","15","C:/Users/Kristen/Documents/opPreviewExperiment-master/procedure/subject-25.csv","legacy","Kafkaesque Koffka","3.2.6","add","0","a","NA","NA","z","l","8088","NA","NA","15196","8088","2","1336","legacy","small","1024","2","48000","-16","experiment","8_2_add_true.jpg","25","odd","legacy","161803","NA","75876","NA","NA","2023","NA","2036","67787","161803","164285","17233","65608","2024","mousetracking operator preview effect","0","0","0","no","true","no","1680"
"neutral","undefined","1","undefined","undefined","white","no","legacy","legacy","legacy","0","relative","undefined","undefined","28","NA","0","0","0","0","0","0","0","44","44","0","15","0","no","04/29/19 12:42:42","A simple template for the mouse-tracking paradigm","yes","Experiment-TF.osexp","C:\Users\Kristen\Documents\opPreviewExperiment-master\procedure","no","mono","no","24","no","black","no","yes","1050","legacy","28","15","C:/Users/Kristen/Documents/opPreviewExperiment-master/procedure/subject-25.csv","legacy","Kafkaesque Koffka","3.2.6","add","0","l","NA","NA","z","l","8088","NA","NA","15196","8088","2","3256","legacy","large","1024","2","48000","-16","experiment","8_4_add_FNI.jpg","25","odd","legacy","164307","NA","75876","NA","NA","2023","NA","2036","67787","164307","168541","17233","65608","2024","mousetracking operator preview effect","0","0","0","no","false","no","1680"
"negative","undefined","1","undefined","undefined","white","no","legacy","legacy","legacy","0","relative","undefined","undefined","29","NA","0","0","0","0","0","0","0","45","45","0","15","0","no","04/29/19 12:42:42","A simple template for the mouse-tracking paradigm","yes","Experiment-TF.osexp","C:\Users\Kristen\Documents\opPreviewExperiment-master\procedure","no","mono","no","24","no","black","no","yes","1050","legacy","29","15","C:/Users/Kristen/Documents/opPreviewExperiment-master/procedure/subject-25.csv","legacy","Kafkaesque Koffka","3.2.6","add","0","a","NA","NA","z","l","8088","NA","NA","15196","8088","2","951","legacy","small","1024","2","48000","-16","experiment","8_2_add_true.jpg","25","odd","legacy","168563","NA","75876","NA","NA","2023","NA","2036","67787","168563","170660","17233","65608","2024","mousetracking operator preview effect","0","0","0","no","true","no","1680"
"negative","undefined","0","undefined","undefined","white","no","legacy","legacy","legacy","0","relative","undefined","undefined","30","NA","0","0","0","0","0","0","0","46","46","0","15","0","no","04/29/19 12:42:42","A simple template for the mouse-tracking paradigm","yes","Experiment-TF.osexp","C:\Users\Kristen\Documents\opPreviewExperiment-master\procedure","no","mono","no","24","no","black","no","yes","1050","legacy","30","15","C:/Users/Kristen/Documents/opPreviewExperiment-master/procedure/subject-25.csv","legacy","Kafkaesque Koffka","3.2.6","mult","0","a","NA","NA","z","l","8088","NA","NA","15196","8088","2","6289","legacy","large","1024","2","48000","-16","experiment","4_9_mult_FNI.jpg","25","odd","legacy","170684","NA","75876","NA","NA","2023","NA","2036","67787","170684","179142","17233","65608","2024","mousetracking operator preview effect","0","0","0","no","false","no","1680"
"negative","undefined","1","undefined","undefined","white","no","legacy","legacy","legacy","0","relative","undefined","undefined","31","NA","0","0","0","0","0","0","0","47","47","0","15","0","no","04/29/19 12:42:42","A simple template for the mouse-tracking paradigm","yes","Experiment-TF.osexp","C:\Users\Kristen\Documents\opPreviewExperiment-master\procedure","no","mono","no","24","no","black","no","yes","1050","legacy","31","15","C:/Users/Kristen/Documents/opPreviewExperiment-master/procedure/subject-25.csv","legacy","Kafkaesque Koffka","3.2.6","add","0","l","NA","NA","z","l","8088","NA","NA","15196","8088","2","1802","legacy","large","1024","2","48000","-16","experiment","6_8_add_FI.jpg","25","odd","legacy","179180","NA","75876","NA","NA","2023","NA","2036","67787","179180","182140","17233","65608","2024","mousetracking operator preview effect","0","0","0","no","false","no","1680"
"negative","undefined","1","undefined","undefined","white","no","legacy","legacy","legacy","0","relative","undefined","undefined","32","NA","0","0","0","0","0","0","0","48","48","0","15","0","no","04/29/19 12:42:42","A simple template for the mouse-tracking paradigm","yes","Experiment-TF.osexp","C:\Users\Kristen\Documents\opPreviewExperiment-master\procedure","no","mono","no","24","no","black","no","yes","1050","legacy","32","15","C:/Users/Kristen/Documents/opPreviewExperiment-master/procedure/subject-25.csv","legacy","Kafkaesque Koffka","3.2.6","mult","0","a","NA","NA","z","l","8088","NA","NA","15196","8088","2","1103","legacy","small","1024","2","48000","-16","experiment","2_7_mult_true.jpg","25","odd","legacy","182160","NA","75876","NA","NA","2023","NA","2036","67787","182160","184416","17233","65608","2024","mousetracking operator preview effect","0","0","0","no","true","no","1680"
"negative","undefined","1","undefined","undefined","white","no","legacy","legacy","legacy","0","relative","undefined","undefined","33","NA","0","0","0","0","0","0","0","49","49","0","15","0","no","04/29/19 12:42:42","A simple template for the mouse-tracking paradigm","yes","Experiment-TF.osexp","C:\Users\Kristen\Documents\opPreviewExperiment-master\procedure","no","mono","no","24","no","black","no","yes","1050","legacy","33","15","C:/Users/Kristen/Documents/opPreviewExperiment-master/procedure/subject-25.csv","legacy","Kafkaesque Koffka","3.2.6","mult","0","l","NA","NA","z","l","8088","NA","NA","15196","8088","2","1082","legacy","large","1024","2","48000","-16","experiment","4_9_mult_FI.jpg","25","odd","legacy","184437","NA","75876","NA","NA","2023","NA","2036","67787","184437","186669","17233","65608","2024","mousetracking operator preview effect","0","0","0","no","false","no","1680"
"neutral","undefined","1","undefined","undefined","white","no","legacy","legacy","legacy","0","relative","undefined","undefined","34","NA","0","0","0","0","0","0","0","50","50","0","15","0","no","04/29/19 12:42:42","A simple template for the mouse-tracking paradigm","yes","Experiment-TF.osexp","C:\Users\Kristen\Documents\opPreviewExperiment-master\procedure","no","mono","no","24","no","black","no","yes","1050","legacy","34","15","C:/Users/Kristen/Documents/opPreviewExperiment-master/procedure/subject-25.csv","legacy","Kafkaesque Koffka","3.2.6","add","0","a","NA","NA","z","l","8088","NA","NA","15196","8088","2","1959","legacy","small","1024","2","48000","-16","experiment","2_7_add_true.jpg","25","odd","legacy","186696","NA","75876","NA","NA","2023","NA","2036","67787","186696","189634","17233","65608","2024","mousetracking operator preview effect","0","0","0","no","true","no","1680"
"neutral","undefined","1","undefined","undefined","white","no","legacy","legacy","legacy","0","relative","undefined","undefined","35","NA","0","0","0","0","0","0","0","51","51","0","15","0","no","04/29/19 12:42:42","A simple template for the mouse-tracking paradigm","yes","Experiment-TF.osexp","C:\Users\Kristen\Documents\opPreviewExperiment-master\procedure","no","mono","no","24","no","black","no","yes","1050","legacy","35","15","C:/Users/Kristen/Documents/opPreviewExperiment-master/procedure/subject-25.csv","legacy","Kafkaesque Koffka","3.2.6","mult","0","a","NA","NA","z","l","8088","NA","NA","15196","8088","2","1202","legacy","small","1024","2","48000","-16","experiment","2_7_mult_true.jpg","25","odd","legacy","189649","NA","75876","NA","NA","2023","NA","2036","67787","189649","191822","17233","65608","2024","mousetracking operator preview effect","0","0","0","no","true","no","1680"
"neutral","undefined","1","undefined","undefined","white","no","legacy","legacy","legacy","0","relative","undefined","undefined","36","NA","0","0","0","0","0","0","0","52","52","0","15","0","no","04/29/19 12:42:42","A simple template for the mouse-tracking paradigm","yes","Experiment-TF.osexp","C:\Users\Kristen\Documents\opPreviewExperiment-master\procedure","no","mono","no","24","no","black","no","yes","1050","legacy","36","15","C:/Users/Kristen/Documents/opPreviewExperiment-master/procedure/subject-25.csv","legacy","Kafkaesque Koffka","3.2.6","add","0","l","NA","NA","z","l","8088","NA","NA","15196","8088","2","1365","legacy","small","1024","2","48000","-16","experiment","8_2_add_FI.jpg","25","odd","legacy","191848","NA","75876","NA","NA","2023","NA","2036","67787","191848","194190","17233","65608","2024","mousetracking operator preview effect","0","0","0","no","false","no","1680"
"negative","undefined","1","undefined","undefined","white","no","legacy","legacy","legacy","0","relative","undefined","undefined","37","NA","0","0","0","0","0","0","0","53","53","0","15","0","no","04/29/19 12:42:42","A simple template for the mouse-tracking paradigm","yes","Experiment-TF.osexp","C:\Users\Kristen\Documents\opPreviewExperiment-master\procedure","no","mono","no","24","no","black","no","yes","1050","legacy","37","15","C:/Users/Kristen/Documents/opPreviewExperiment-master/procedure/subject-25.csv","legacy","Kafkaesque Koffka","3.2.6","mult","0","a","NA","NA","z","l","8088","NA","NA","15196","8088","2","923","legacy","small","1024","2","48000","-16","experiment","5_3_mult_true.jpg","25","odd","legacy","194220","NA","75876","NA","NA","2023","NA","2036","67787","194220","196295","17233","65608","2024","mousetracking operator preview effect","0","0","0","no","true","no","1680"
"negative","undefined","1","undefined","undefined","white","no","legacy","legacy","legacy","0","relative","undefined","undefined","38","NA","0","0","0","0","0","0","0","54","54","0","15","0","no","04/29/19 12:42:42","A simple template for the mouse-tracking paradigm","yes","Experiment-TF.osexp","C:\Users\Kristen\Documents\opPreviewExperiment-master\procedure","no","mono","no","24","no","black","no","yes","1050","legacy","38","15","C:/Users/Kristen/Documents/opPreviewExperiment-master/procedure/subject-25.csv","legacy","Kafkaesque Koffka","3.2.6","mult","0","a","NA","NA","z","l","8088","NA","NA","15196","8088","2","1232","legacy","large","1024","2","48000","-16","experiment","6_8_mult_true.jpg","25","odd","legacy","196320","NA","75876","NA","NA","2023","NA","2036","67787","196320","198710","17233","65608","2024","mousetracking operator preview effect","0","0","0","no","true","no","1680"
"negative","undefined","1","undefined","undefined","white","no","legacy","legacy","legacy","0","relative","undefined","undefined","39","NA","0","0","0","0","0","0","0","55","55","0","15","0","no","04/29/19 12:42:42","A simple template for the mouse-tracking paradigm","yes","Experiment-TF.osexp","C:\Users\Kristen\Documents\opPreviewExperiment-master\procedure","no","mono","no","24","no","black","no","yes","1050","legacy","39","15","C:/Users/Kristen/Documents/opPreviewExperiment-master/procedure/subject-25.csv","legacy","Kafkaesque Koffka","3.2.6","add","0","a","NA","NA","z","l","8088","NA","NA","15196","8088","2","1604","legacy","small","1024","2","48000","-16","experiment","3_6_add_true.jpg","25","odd","legacy","198741","NA","75876","NA","NA","2023","NA","2036","67787","198741","201500","17233","65608","2024","mousetracking operator preview effect","0","0","0","no","true","no","1680"
"neutral","undefined","1","undefined","undefined","white","no","legacy","legacy","legacy","0","relative","undefined","undefined","40","NA","0","0","0","0","0","0","0","56","56","0","15","0","no","04/29/19 12:42:42","A simple template for the mouse-tracking paradigm","yes","Experiment-TF.osexp","C:\Users\Kristen\Documents\opPreviewExperiment-master\procedure","no","mono","no","24","no","black","no","yes","1050","legacy","40","15","C:/Users/Kristen/Documents/opPreviewExperiment-master/procedure/subject-25.csv","legacy","Kafkaesque Koffka","3.2.6","add","0","a","NA","NA","z","l","8088","NA","NA","15196","8088","2","1834","legacy","small","1024","2","48000","-16","experiment","5_3_add_true.jpg","25","odd","legacy","201531","NA","75876","NA","NA","2023","NA","2036","67787","201531","204349","17233","65608","2024","mousetracking operator preview effect","0","0","0","no","true","no","1680"
"neutral","undefined","1","undefined","undefined","white","no","legacy","legacy","legacy","0","relative","undefined","undefined","41","NA","0","0","0","0","0","0","0","57","57","0","15","0","no","04/29/19 12:42:42","A simple template for the mouse-tracking paradigm","yes","Experiment-TF.osexp","C:\Users\Kristen\Documents\opPreviewExperiment-master\procedure","no","mono","no","24","no","black","no","yes","1050","legacy","41","15","C:/Users/Kristen/Documents/opPreviewExperiment-master/procedure/subject-25.csv","legacy","Kafkaesque Koffka","3.2.6","add","0","a","NA","NA","z","l","8088","NA","NA","15196","8088","2","1730","legacy","large","1024","2","48000","-16","experiment","9_7_add_true.jpg","25","odd","legacy","204377","NA","75876","NA","NA","2023","NA","2036","67787","204377","207081","17233","65608","2024","mousetracking operator preview effect","0","0","0","no","true","no","1680"
"negative","undefined","1","undefined","undefined","white","no","legacy","legacy","legacy","0","relative","undefined","undefined","42","NA","0","0","0","0","0","0","0","58","58","0","15","0","no","04/29/19 12:42:42","A simple template for the mouse-tracking paradigm","yes","Experiment-TF.osexp","C:\Users\Kristen\Documents\opPreviewExperiment-master\procedure","no","mono","no","24","no","black","no","yes","1050","legacy","42","15","C:/Users/Kristen/Documents/opPreviewExperiment-master/procedure/subject-25.csv","legacy","Kafkaesque Koffka","3.2.6","add","0","l","NA","NA","z","l","8088","NA","NA","15196","8088","2","1266","legacy","small","1024","2","48000","-16","experiment","8_2_add_FI.jpg","25","odd","legacy","207102","NA","75876","NA","NA","2023","NA","2036","67787","207102","209522","17233","65608","2024","mousetracking operator preview effect","0","0","0","no","false","no","1680"
"neutral","undefined","0","undefined","undefined","white","no","legacy","legacy","legacy","0","relative","undefined","undefined","43","NA","0","0","0","0","0","0","0","59","59","0","15","0","no","04/29/19 12:42:42","A simple template for the mouse-tracking paradigm","yes","Experiment-TF.osexp","C:\Users\Kristen\Documents\opPreviewExperiment-master\procedure","no","mono","no","24","no","black","no","yes","1050","legacy","43","15","C:/Users/Kristen/Documents/opPreviewExperiment-master/procedure/subject-25.csv","legacy","Kafkaesque Koffka","3.2.6","mult","0","a","NA","NA","z","l","8088","NA","NA","15196","8088","2","1406","legacy","large","1024","2","48000","-16","experiment","8_4_mult_FI.jpg","25","odd","legacy","209552","NA","75876","NA","NA","2023","NA","2036","67787","209553","212956","17233","65608","2024","mousetracking operator preview effect","0","0","0","no","false","no","1680"
"negative","undefined","1","undefined","undefined","white","no","legacy","legacy","legacy","0","relative","undefined","undefined","44","NA","0","0","0","0","0","0","0","60","60","0","15","0","no","04/29/19 12:42:42","A simple template for the mouse-tracking paradigm","yes","Experiment-TF.osexp","C:\Users\Kristen\Documents\opPreviewExperiment-master\procedure","no","mono","no","24","no","black","no","yes","1050","legacy","44","15","C:/Users/Kristen/Documents/opPreviewExperiment-master/procedure/subject-25.csv","legacy","Kafkaesque Koffka","3.2.6","add","0","a","NA","NA","z","l","8088","NA","NA","15196","8088","2","4264","legacy","small","1024","2","48000","-16","experiment","5_3_add_true.jpg","25","odd","legacy","212996","NA","75876","NA","NA","2023","NA","2036","67787","212997","218416","17233","65608","2024","mousetracking operator preview effect","0","0","0","no","true","no","1680"
"negative","undefined","1","undefined","undefined","white","no","legacy","legacy","legacy","0","relative","undefined","undefined","45","NA","0","0","0","0","0","0","0","61","61","0","15","0","no","04/29/19 12:42:42","A simple template for the mouse-tracking paradigm","yes","Experiment-TF.osexp","C:\Users\Kristen\Documents\opPreviewExperiment-master\procedure","no","mono","no","24","no","black","no","yes","1050","legacy","45","15","C:/Users/Kristen/Documents/opPreviewExperiment-master/procedure/subject-25.csv","legacy","Kafkaesque Koffka","3.2.6","add","0","a","NA","NA","z","l","8088","NA","NA","15196","8088","2","1254","legacy","large","1024","2","48000","-16","experiment","9_7_add_true.jpg","25","odd","legacy","218444","NA","75876","NA","NA","2023","NA","2036","67787","218444","220852","17233","65608","2024","mousetracking operator preview effect","0","0","0","no","true","no","1680"
"neutral","undefined","1","undefined","undefined","white","no","legacy","legacy","legacy","0","relative","undefined","undefined","46","NA","0","0","0","0","0","0","0","62","62","0","15","0","no","04/29/19 12:42:42","A simple template for the mouse-tracking paradigm","yes","Experiment-TF.osexp","C:\Users\Kristen\Documents\opPreviewExperiment-master\procedure","no","mono","no","24","no","black","no","yes","1050","legacy","46","15","C:/Users/Kristen/Documents/opPreviewExperiment-master/procedure/subject-25.csv","legacy","Kafkaesque Koffka","3.2.6","mult","0","a","NA","NA","z","l","8088","NA","NA","15196","8088","2","1867","legacy","large","1024","2","48000","-16","experiment","6_8_mult_true.jpg","25","odd","legacy","220866","NA","75876","NA","NA","2023","NA","2036","67787","220866","223711","17233","65608","2024","mousetracking operator preview effect","0","0","0","no","true","no","1680"
"neutral","undefined","1","undefined","undefined","white","no","legacy","legacy","legacy","0","relative","undefined","undefined","47","NA","0","0","0","0","0","0","0","63","63","0","15","0","no","04/29/19 12:42:42","A simple template for the mouse-tracking paradigm","yes","Experiment-TF.osexp","C:\Users\Kristen\Documents\opPreviewExperiment-master\procedure","no","mono","no","24","no","black","no","yes","1050","legacy","47","15","C:/Users/Kristen/Documents/opPreviewExperiment-master/procedure/subject-25.csv","legacy","Kafkaesque Koffka","3.2.6","add","0","l","NA","NA","z","l","8088","NA","NA","15196","8088","2","1920","legacy","small","1024","2","48000","-16","experiment","5_3_add_FNI.jpg","25","odd","legacy","223728","NA","75876","NA","NA","2023","NA","2036","67787","223729","226625","17233","65608","2024","mousetracking operator preview effect","0","0","0","no","false","no","1680"
"neutral","undefined","1","undefined","undefined","white","no","legacy","legacy","legacy","0","relative","undefined","undefined","48","NA","0","0","0","0","0","0","0","64","64","0","15","0","no","04/29/19 12:42:42","A simple template for the mouse-tracking paradigm","yes","Experiment-TF.osexp","C:\Users\Kristen\Documents\opPreviewExperiment-master\procedure","no","mono","no","24","no","black","no","yes","1050","legacy","48","15","C:/Users/Kristen/Documents/opPreviewExperiment-master/procedure/subject-25.csv","legacy","Kafkaesque Koffka","3.2.6","mult","0","a","NA","NA","z","l","8088","NA","NA","15196","8088","2","881","legacy","large","1024","2","48000","-16","experiment","8_4_mult_true.jpg","25","odd","legacy","226649","NA","75876","NA","NA","2023","NA","2036","67787","226649","228509","17233","65608","2024","mousetracking operator preview effect","0","0","0","no","true","no","1680"
"neutral","undefined","1","undefined","undefined","white","no","legacy","legacy","legacy","0","relative","undefined","undefined","49","NA","0","0","0","0","0","0","0","65","65","0","15","0","no","04/29/19 12:42:42","A simple template for the mouse-tracking paradigm","yes","Experiment-TF.osexp","C:\Users\Kristen\Documents\opPreviewExperiment-master\procedure","no","mono","no","24","no","black","no","yes","1050","legacy","49","15","C:/Users/Kristen/Documents/opPreviewExperiment-master/procedure/subject-25.csv","legacy","Kafkaesque Koffka","3.2.6","add","0","l","NA","NA","z","l","8088","NA","NA","15196","8088","2","1168","legacy","small","1024","2","48000","-16","experiment","2_7_add_FI.jpg","25","odd","legacy","228539","NA","75876","NA","NA","2023","NA","2036","67787","228539","230690","17233","65608","2024","mousetracking operator preview effect","0","0","0","no","false","no","1680"
"neutral","undefined","1","undefined","undefined","white","no","legacy","legacy","legacy","0","relative","undefined","undefined","50","NA","0","0","0","0","0","0","0","66","66","0","15","0","no","04/29/19 12:42:42","A simple template for the mouse-tracking paradigm","yes","Experiment-TF.osexp","C:\Users\Kristen\Documents\opPreviewExperiment-master\procedure","no","mono","no","24","no","black","no","yes","1050","legacy","50","15","C:/Users/Kristen/Documents/opPreviewExperiment-master/procedure/subject-25.csv","legacy","Kafkaesque Koffka","3.2.6","mult","0","a","NA","NA","z","l","8088","NA","NA","15196","8088","2","2062","legacy","small","1024","2","48000","-16","experiment","3_6_mult_true.jpg","25","odd","legacy","230711","NA","75876","NA","NA","2023","NA","2036","67787","230711","233751","17233","65608","2024","mousetracking operator preview effect","0","0","0","no","true","no","1680"
"neutral","undefined","1","undefined","undefined","white","no","legacy","legacy","legacy","0","relative","undefined","undefined","51","NA","0","0","0","0","0","0","0","67","67","0","15","0","no","04/29/19 12:42:42","A simple template for the mouse-tracking paradigm","yes","Experiment-TF.osexp","C:\Users\Kristen\Documents\opPreviewExperiment-master\procedure","no","mono","no","24","no","black","no","yes","1050","legacy","51","15","C:/Users/Kristen/Documents/opPreviewExperiment-master/procedure/subject-25.csv","legacy","Kafkaesque Koffka","3.2.6","add","0","l","NA","NA","z","l","8088","NA","NA","15196","8088","2","2574","legacy","large","1024","2","48000","-16","experiment","9_7_add_FNI.jpg","25","odd","legacy","233775","NA","75876","NA","NA","2023","NA","2036","67787","233775","237331","17233","65608","2024","mousetracking operator preview effect","0","0","0","no","false","no","1680"
"neutral","undefined","1","undefined","undefined","white","no","legacy","legacy","legacy","0","relative","undefined","undefined","52","NA","0","0","0","0","0","0","0","68","68","0","15","0","no","04/29/19 12:42:42","A simple template for the mouse-tracking paradigm","yes","Experiment-TF.osexp","C:\Users\Kristen\Documents\opPreviewExperiment-master\procedure","no","mono","no","24","no","black","no","yes","1050","legacy","52","15","C:/Users/Kristen/Documents/opPreviewExperiment-master/procedure/subject-25.csv","legacy","Kafkaesque Koffka","3.2.6","mult","0","l","NA","NA","z","l","8088","NA","NA","15196","8088","2","1063","legacy","small","1024","2","48000","-16","experiment","5_3_mult_FI.jpg","25","odd","legacy","237352","NA","75876","NA","NA","2023","NA","2036","67787","237352","239383","17233","65608","2024","mousetracking operator preview effect","0","0","0","no","false","no","1680"
"neutral","undefined","1","undefined","undefined","white","no","legacy","legacy","legacy","0","relative","undefined","undefined","53","NA","0","0","0","0","0","0","0","69","69","0","15","0","no","04/29/19 12:42:42","A simple template for the mouse-tracking paradigm","yes","Experiment-TF.osexp","C:\Users\Kristen\Documents\opPreviewExperiment-master\procedure","no","mono","no","24","no","black","no","yes","1050","legacy","53","15","C:/Users/Kristen/Documents/opPreviewExperiment-master/procedure/subject-25.csv","legacy","Kafkaesque Koffka","3.2.6","mult","0","l","NA","NA","z","l","8088","NA","NA","15196","8088","2","1020","legacy","large","1024","2","48000","-16","experiment","4_9_mult_FNI.jpg","25","odd","legacy","239411","NA","75876","NA","NA","2023","NA","2036","67787","239411","241410","17233","65608","2024","mousetracking operator preview effect","0","0","0","no","false","no","1680"
"negative","undefined","1","undefined","undefined","white","no","legacy","legacy","legacy","0","relative","undefined","undefined","54","NA","0","0","0","0","0","0","0","70","70","0","15","0","no","04/29/19 12:42:42","A simple template for the mouse-tracking paradigm","yes","Experiment-TF.osexp","C:\Users\Kristen\Documents\opPreviewExperiment-master\procedure","no","mono","no","24","no","black","no","yes","1050","legacy","54","15","C:/Users/Kristen/Documents/opPreviewExperiment-master/procedure/subject-25.csv","legacy","Kafkaesque Koffka","3.2.6","add","0","a","NA","NA","z","l","8088","NA","NA","15196","8088","2","3848","legacy","large","1024","2","48000","-16","experiment","4_9_add_true.jpg","25","odd","legacy","241441","NA","75876","NA","NA","2023","NA","2036","67787","241441","246443","17233","65608","2024","mousetracking operator preview effect","0","0","0","no","true","no","1680"
"neutral","undefined","1","undefined","undefined","white","no","legacy","legacy","legacy","0","relative","undefined","undefined","55","NA","0","0","0","0","0","0","0","71","71","0","15","0","no","04/29/19 12:42:42","A simple template for the mouse-tracking paradigm","yes","Experiment-TF.osexp","C:\Users\Kristen\Documents\opPreviewExperiment-master\procedure","no","mono","no","24","no","black","no","yes","1050","legacy","55","15","C:/Users/Kristen/Documents/opPreviewExperiment-master/procedure/subject-25.csv","legacy","Kafkaesque Koffka","3.2.6","add","0","a","NA","NA","z","l","8088","NA","NA","15196","8088","2","1470","legacy","large","1024","2","48000","-16","experiment","8_4_add_true.jpg","25","odd","legacy","246465","NA","75876","NA","NA","2023","NA","2036","67787","246466","248909","17233","65608","2024","mousetracking operator preview effect","0","0","0","no","true","no","1680"
"negative","undefined","1","undefined","undefined","white","no","legacy","legacy","legacy","0","relative","undefined","undefined","56","NA","0","0","0","0","0","0","0","72","72","0","15","0","no","04/29/19 12:42:42","A simple template for the mouse-tracking paradigm","yes","Experiment-TF.osexp","C:\Users\Kristen\Documents\opPreviewExperiment-master\procedure","no","mono","no","24","no","black","no","yes","1050","legacy","56","15","C:/Users/Kristen/Documents/opPreviewExperiment-master/procedure/subject-25.csv","legacy","Kafkaesque Koffka","3.2.6","mult","0","l","NA","NA","z","l","8088","NA","NA","15196","8088","2","1001","legacy","small","1024","2","48000","-16","experiment","3_6_mult_FI.jpg","25","odd","legacy","248930","NA","75876","NA","NA","2023","NA","2036","67787","248930","251083","17233","65608","2024","mousetracking operator preview effect","0","0","0","no","false","no","1680"
"neutral","undefined","1","undefined","undefined","white","no","legacy","legacy","legacy","0","relative","undefined","undefined","57","NA","0","0","0","0","0","0","0","73","73","0","15","0","no","04/29/19 12:42:42","A simple template for the mouse-tracking paradigm","yes","Experiment-TF.osexp","C:\Users\Kristen\Documents\opPreviewExperiment-master\procedure","no","mono","no","24","no","black","no","yes","1050","legacy","57","15","C:/Users/Kristen/Documents/opPreviewExperiment-master/procedure/subject-25.csv","legacy","Kafkaesque Koffka","3.2.6","add","0","a","NA","NA","z","l","8088","NA","NA","15196","8088","2","819","legacy","large","1024","2","48000","-16","experiment","8_4_add_true.jpg","25","odd","legacy","251103","NA","75876","NA","NA","2023","NA","2036","67787","251103","252901","17233","65608","2024","mousetracking operator preview effect","0","0","0","no","true","no","1680"
"neutral","undefined","1","undefined","undefined","white","no","legacy","legacy","legacy","0","relative","undefined","undefined","58","NA","0","0","0","0","0","0","0","74","74","0","15","0","no","04/29/19 12:42:42","A simple template for the mouse-tracking paradigm","yes","Experiment-TF.osexp","C:\Users\Kristen\Documents\opPreviewExperiment-master\procedure","no","mono","no","24","no","black","no","yes","1050","legacy","58","15","C:/Users/Kristen/Documents/opPreviewExperiment-master/procedure/subject-25.csv","legacy","Kafkaesque Koffka","3.2.6","add","0","a","NA","NA","z","l","8088","NA","NA","15196","8088","2","833","legacy","small","1024","2","48000","-16","experiment","3_6_add_true.jpg","25","odd","legacy","252922","NA","75876","NA","NA","2023","NA","2036","67787","252922","254740","17233","65608","2024","mousetracking operator preview effect","0","0","0","no","true","no","1680"
"negative","undefined","1","undefined","undefined","white","no","legacy","legacy","legacy","0","relative","undefined","undefined","59","NA","0","0","0","0","0","0","0","75","75","0","15","0","no","04/29/19 12:42:42","A simple template for the mouse-tracking paradigm","yes","Experiment-TF.osexp","C:\Users\Kristen\Documents\opPreviewExperiment-master\procedure","no","mono","no","24","no","black","no","yes","1050","legacy","59","15","C:/Users/Kristen/Documents/opPreviewExperiment-master/procedure/subject-25.csv","legacy","Kafkaesque Koffka","3.2.6","add","0","l","NA","NA","z","l","8088","NA","NA","15196","8088","2","808","legacy","small","1024","2","48000","-16","experiment","5_3_add_FI.jpg","25","odd","legacy","254761","NA","75876","NA","NA","2023","NA","2036","67787","254761","256727","17233","65608","2024","mousetracking operator preview effect","0","0","0","no","false","no","1680"
"negative","undefined","0","undefined","undefined","white","no","legacy","legacy","legacy","0","relative","undefined","undefined","60","NA","0","0","0","0","0","0","0","76","76","0","15","0","no","04/29/19 12:42:42","A simple template for the mouse-tracking paradigm","yes","Experiment-TF.osexp","C:\Users\Kristen\Documents\opPreviewExperiment-master\procedure","no","mono","no","24","no","black","no","yes","1050","legacy","60","15","C:/Users/Kristen/Documents/opPreviewExperiment-master/procedure/subject-25.csv","legacy","Kafkaesque Koffka","3.2.6","add","0","a","NA","NA","z","l","8088","NA","NA","15196","8088","2","732","legacy","small","1024","2","48000","-16","experiment","3_6_add_FNI.jpg","25","odd","legacy","256755","NA","75876","NA","NA","2023","NA","2036","67787","256755","259654","17233","65608","2024","mousetracking operator preview effect","0","0","0","no","false","no","1680"
"neutral","undefined","1","undefined","undefined","white","no","legacy","legacy","legacy","0","relative","undefined","undefined","61","NA","0","0","0","0","0","0","0","77","77","0","15","0","no","04/29/19 12:42:42","A simple template for the mouse-tracking paradigm","yes","Experiment-TF.osexp","C:\Users\Kristen\Documents\opPreviewExperiment-master\procedure","no","mono","no","24","no","black","no","yes","1050","legacy","61","15","C:/Users/Kristen/Documents/opPreviewExperiment-master/procedure/subject-25.csv","legacy","Kafkaesque Koffka","3.2.6","mult","0","l","NA","NA","z","l","8088","NA","NA","15196","8088","2","965","legacy","small","1024","2","48000","-16","experiment","2_7_mult_FNI.jpg","25","odd","legacy","259694","NA","75876","NA","NA","2023","NA","2036","67787","259694","261641","17233","65608","2024","mousetracking operator preview effect","0","0","0","no","false","no","1680"
"neutral","undefined","1","undefined","undefined","white","no","legacy","legacy","legacy","0","relative","undefined","undefined","62","NA","0","0","0","0","0","0","0","78","78","0","15","0","no","04/29/19 12:42:42","A simple template for the mouse-tracking paradigm","yes","Experiment-TF.osexp","C:\Users\Kristen\Documents\opPreviewExperiment-master\procedure","no","mono","no","24","no","black","no","yes","1050","legacy","62","15","C:/Users/Kristen/Documents/opPreviewExperiment-master/procedure/subject-25.csv","legacy","Kafkaesque Koffka","3.2.6","add","0","a","NA","NA","z","l","8088","NA","NA","15196","8088","2","725","legacy","small","1024","2","48000","-16","experiment","8_2_add_true.jpg","25","odd","legacy","261669","NA","75876","NA","NA","2023","NA","2036","67787","261669","263377","17233","65608","2024","mousetracking operator preview effect","0","0","0","no","true","no","1680"
"negative","undefined","1","undefined","undefined","white","no","legacy","legacy","legacy","0","relative","undefined","undefined","63","NA","0","0","0","0","0","0","0","79","79","0","15","0","no","04/29/19 12:42:42","A simple template for the mouse-tracking paradigm","yes","Experiment-TF.osexp","C:\Users\Kristen\Documents\opPreviewExperiment-master\procedure","no","mono","no","24","no","black","no","yes","1050","legacy","63","15","C:/Users/Kristen/Documents/opPreviewExperiment-master/procedure/subject-25.csv","legacy","Kafkaesque Koffka","3.2.6","add","0","a","NA","NA","z","l","8088","NA","NA","15196","8088","2","1157","legacy","large","1024","2","48000","-16","experiment","8_4_add_true.jpg","25","odd","legacy","263392","NA","75876","NA","NA","2023","NA","2036","67787","263392","265701","17233","65608","2024","mousetracking operator preview effect","0","0","0","no","true","no","1680"
"neutral","undefined","1","undefined","undefined","white","no","legacy","legacy","legacy","0","relative","undefined","undefined","64","NA","0","0","0","0","0","0","0","80","80","0","15","0","no","04/29/19 12:42:42","A simple template for the mouse-tracking paradigm","yes","Experiment-TF.osexp","C:\Users\Kristen\Documents\opPreviewExperiment-master\procedure","no","mono","no","24","no","black","no","yes","1050","legacy","64","15","C:/Users/Kristen/Documents/opPreviewExperiment-master/procedure/subject-25.csv","legacy","Kafkaesque Koffka","3.2.6","mult","0","l","NA","NA","z","l","8088","NA","NA","15196","8088","2","1648","legacy","large","1024","2","48000","-16","experiment","9_7_mult_FI.jpg","25","odd","legacy","265723","NA","75876","NA","NA","2023","NA","2036","67787","265723","268346","17233","65608","2024","mousetracking operator preview effect","0","0","0","no","false","no","1680"
"neutral","undefined","0","undefined","undefined","white","no","legacy","legacy","legacy","0","relative","undefined","undefined","65","NA","0","0","0","0","0","0","0","81","81","0","15","0","no","04/29/19 12:42:42","A simple template for the mouse-tracking paradigm","yes","Experiment-TF.osexp","C:\Users\Kristen\Documents\opPreviewExperiment-master\procedure","no","mono","no","24","no","black","no","yes","1050","legacy","65","15","C:/Users/Kristen/Documents/opPreviewExperiment-master/procedure/subject-25.csv","legacy","Kafkaesque Koffka","3.2.6","add","0","A","NA","NA","z","l","8088","NA","NA","15196","8088","2","6722","legacy","large","1024","2","48000","-16","experiment","6_8_add_true.jpg","25","odd","legacy","268363","NA","75876","NA","NA","2023","NA","2036","67787","268363","277076","17233","65608","2024","mousetracking operator preview effect","0","0","0","no","true","no","1680"
"neutral","undefined","0","undefined","undefined","white","no","legacy","legacy","legacy","0","relative","undefined","undefined","66","NA","0","0","0","0","0","0","0","82","82","0","15","0","no","04/29/19 12:42:42","A simple template for the mouse-tracking paradigm","yes","Experiment-TF.osexp","C:\Users\Kristen\Documents\opPreviewExperiment-master\procedure","no","mono","no","24","no","black","no","yes","1050","legacy","66","15","C:/Users/Kristen/Documents/opPreviewExperiment-master/procedure/subject-25.csv","legacy","Kafkaesque Koffka","3.2.6","mult","0","l","NA","NA","z","l","8088","NA","NA","15196","8088","2","4349","legacy","large","1024","2","48000","-16","experiment","4_9_mult_true.jpg","25","odd","legacy","277113","NA","75876","NA","NA","2023","NA","2036","67787","277114","283464","17233","65608","2024","mousetracking operator preview effect","0","0","0","no","true","no","1680"
"neutral","undefined","0","undefined","undefined","white","no","legacy","legacy","legacy","0","relative","undefined","undefined","67","NA","0","0","0","0","0","0","0","83","83","0","15","0","no","04/29/19 12:42:42","A simple template for the mouse-tracking paradigm","yes","Experiment-TF.osexp","C:\Users\Kristen\Documents\opPreviewExperiment-master\procedure","no","mono","no","24","no","black","no","yes","1050","legacy","67","15","C:/Users/Kristen/Documents/opPreviewExperiment-master/procedure/subject-25.csv","legacy","Kafkaesque Koffka","3.2.6","mult","0","a","NA","NA","z","l","8088","NA","NA","15196","8088","2","2755","legacy","large","1024","2","48000","-16","experiment","6_8_mult_FNI.jpg","25","odd","legacy","283493","NA","75876","NA","NA","2023","NA","2036","67787","283493","288240","17233","65608","2024","mousetracking operator preview effect","0","0","0","no","false","no","1680"
"neutral","undefined","1","undefined","undefined","white","no","legacy","legacy","legacy","0","relative","undefined","undefined","68","NA","0","0","0","0","0","0","0","84","84","0","15","0","no","04/29/19 12:42:42","A simple template for the mouse-tracking paradigm","yes","Experiment-TF.osexp","C:\Users\Kristen\Documents\opPreviewExperiment-master\procedure","no","mono","no","24","no","black","no","yes","1050","legacy","68","15","C:/Users/Kristen/Documents/opPreviewExperiment-master/procedure/subject-25.csv","legacy","Kafkaesque Koffka","3.2.6","mult","0","l","NA","NA","z","l","8088","NA","NA","15196","8088","2","1830","legacy","small","1024","2","48000","-16","experiment","2_7_mult_FI.jpg","25","odd","legacy","288279","NA","75876","NA","NA","2023","NA","2036","67787","288279","291093","17233","65608","2024","mousetracking operator preview effect","0","0","0","no","false","no","1680"
"neutral","undefined","1","undefined","undefined","white","no","legacy","legacy","legacy","0","relative","undefined","undefined","69","NA","0","0","0","0","0","0","0","85","85","0","15","0","no","04/29/19 12:42:42","A simple template for the mouse-tracking paradigm","yes","Experiment-TF.osexp","C:\Users\Kristen\Documents\opPreviewExperiment-master\procedure","no","mono","no","24","no","black","no","yes","1050","legacy","69","15","C:/Users/Kristen/Documents/opPreviewExperiment-master/procedure/subject-25.csv","legacy","Kafkaesque Koffka","3.2.6","add","0","l","NA","NA","z","l","8088","NA","NA","15196","8088","2","2665","legacy","small","1024","2","48000","-16","experiment","3_6_add_FI.jpg","25","odd","legacy","291114","NA","75876","NA","NA","2023","NA","2036","67787","291114","294759","17233","65608","2024","mousetracking operator preview effect","0","0","0","no","false","no","1680"
"neutral","undefined","1","undefined","undefined","white","no","legacy","legacy","legacy","0","relative","undefined","undefined","70","NA","0","0","0","0","0","0","0","86","86","0","15","0","no","04/29/19 12:42:42","A simple template for the mouse-tracking paradigm","yes","Experiment-TF.osexp","C:\Users\Kristen\Documents\opPreviewExperiment-master\procedure","no","mono","no","24","no","black","no","yes","1050","legacy","70","15","C:/Users/Kristen/Documents/opPreviewExperiment-master/procedure/subject-25.csv","legacy","Kafkaesque Koffka","3.2.6","add","0","l","NA","NA","z","l","8088","NA","NA","15196","8088","2","4863","legacy","large","1024","2","48000","-16","experiment","8_4_add_FI.jpg","25","odd","legacy","294780","NA","75876","NA","NA","2023","NA","2036","67787","294780","300603","17233","65608","2024","mousetracking operator preview effect","0","0","0","no","false","no","1680"
"neutral","undefined","1","undefined","undefined","white","no","legacy","legacy","legacy","0","relative","undefined","undefined","71","NA","0","0","0","0","0","0","0","87","87","0","15","0","no","04/29/19 12:42:42","A simple template for the mouse-tracking paradigm","yes","Experiment-TF.osexp","C:\Users\Kristen\Documents\opPreviewExperiment-master\procedure","no","mono","no","24","no","black","no","yes","1050","legacy","71","15","C:/Users/Kristen/Documents/opPreviewExperiment-master/procedure/subject-25.csv","legacy","Kafkaesque Koffka","3.2.6","mult","0","a","NA","NA","z","l","8088","NA","NA","15196","8088","2","1781","legacy","small","1024","2","48000","-16","experiment","8_2_mult_true.jpg","25","odd","legacy","300618","NA","75876","NA","NA","2023","NA","2036","67787","300618","303371","17233","65608","2024","mousetracking operator preview effect","0","0","0","no","true","no","1680"
"negative","undefined","1","undefined","undefined","white","no","legacy","legacy","legacy","0","relative","undefined","undefined","72","NA","0","0","0","0","0","0","0","88","88","0","15","0","no","04/29/19 12:42:42","A simple template for the mouse-tracking paradigm","yes","Experiment-TF.osexp","C:\Users\Kristen\Documents\opPreviewExperiment-master\procedure","no","mono","no","24","no","black","no","yes","1050","legacy","72","15","C:/Users/Kristen/Documents/opPreviewExperiment-master/procedure/subject-25.csv","legacy","Kafkaesque Koffka","3.2.6","add","0","a","NA","NA","z","l","8088","NA","NA","15196","8088","2","7369","legacy","large","1024","2","48000","-16","experiment","9_7_add_true.jpg","25","odd","legacy","303394","NA","75876","NA","NA","2023","NA","2036","67787","303394","311910","17233","65608","2024","mousetracking operator preview effect","0","0","0","no","true","no","1680"
"neutral","undefined","1","undefined","undefined","white","no","legacy","legacy","legacy","0","relative","undefined","undefined","73","NA","0","0","0","0","0","0","0","89","89","0","15","0","no","04/29/19 12:42:42","A simple template for the mouse-tracking paradigm","yes","Experiment-TF.osexp","C:\Users\Kristen\Documents\opPreviewExperiment-master\procedure","no","mono","no","24","no","black","no","yes","1050","legacy","73","15","C:/Users/Kristen/Documents/opPreviewExperiment-master/procedure/subject-25.csv","legacy","Kafkaesque Koffka","3.2.6","add","0","l","NA","NA","z","l","8088","NA","NA","15196","8088","2","3104","legacy","small","1024","2","48000","-16","experiment","8_2_add_FNI.jpg","25","odd","legacy","311930","NA","75876","NA","NA","2023","NA","2036","67787","311930","316007","17233","65608","2024","mousetracking operator preview effect","0","0","0","no","false","no","1680"
"neutral","undefined","1","undefined","undefined","white","no","legacy","legacy","legacy","0","relative","undefined","undefined","74","NA","0","0","0","0","0","0","0","90","90","0","15","0","no","04/29/19 12:42:42","A simple template for the mouse-tracking paradigm","yes","Experiment-TF.osexp","C:\Users\Kristen\Documents\opPreviewExperiment-master\procedure","no","mono","no","24","no","black","no","yes","1050","legacy","74","15","C:/Users/Kristen/Documents/opPreviewExperiment-master/procedure/subject-25.csv","legacy","Kafkaesque Koffka","3.2.6","mult","0","l","NA","NA","z","l","8088","NA","NA","15196","8088","2","1190","legacy","large","1024","2","48000","-16","experiment","6_8_mult_FI.jpg","25","odd","legacy","316021","NA","75876","NA","NA","2023","NA","2036","67787","316021","318171","17233","65608","2024","mousetracking operator preview effect","0","0","0","no","false","no","1680"
"negative","undefined","1","undefined","undefined","white","no","legacy","legacy","legacy","0","relative","undefined","undefined","75","NA","0","0","0","0","0","0","0","91","91","0","15","0","no","04/29/19 12:42:42","A simple template for the mouse-tracking paradigm","yes","Experiment-TF.osexp","C:\Users\Kristen\Documents\opPreviewExperiment-master\procedure","no","mono","no","24","no","black","no","yes","1050","legacy","75","15","C:/Users/Kristen/Documents/opPreviewExperiment-master/procedure/subject-25.csv","legacy","Kafkaesque Koffka","3.2.6","mult","0","l","NA","NA","z","l","8088","NA","NA","15196","8088","2","1056","legacy","small","1024","2","48000","-16","experiment","8_2_mult_FNI.jpg","25","odd","legacy","318192","NA","75876","NA","NA","2023","NA","2036","67787","318192","320403","17233","65608","2024","mousetracking operator preview effect","0","0","0","no","false","no","1680"
"neutral","undefined","0","undefined","undefined","white","no","legacy","legacy","legacy","0","relative","undefined","undefined","76","NA","0","0","0","0","0","0","0","92","92","0","15","0","no","04/29/19 12:42:42","A simple template for the mouse-tracking paradigm","yes","Experiment-TF.osexp","C:\Users\Kristen\Documents\opPreviewExperiment-master\procedure","no","mono","no","24","no","black","no","yes","1050","legacy","76","15","C:/Users/Kristen/Documents/opPreviewExperiment-master/procedure/subject-25.csv","legacy","Kafkaesque Koffka","3.2.6","mult","0","l","NA","NA","z","l","8088","NA","NA","15196","8088","2","4573","legacy","small","1024","2","48000","-16","experiment","5_3_mult_true.jpg","25","odd","legacy","320427","NA","75876","NA","NA","2023","NA","2036","67787","320427","326990","17233","65608","2024","mousetracking operator preview effect","0","0","0","no","true","no","1680"
"negative","undefined","1","undefined","undefined","white","no","legacy","legacy","legacy","0","relative","undefined","undefined","77","NA","0","0","0","0","0","0","0","93","93","0","15","0","no","04/29/19 12:42:42","A simple template for the mouse-tracking paradigm","yes","Experiment-TF.osexp","C:\Users\Kristen\Documents\opPreviewExperiment-master\procedure","no","mono","no","24","no","black","no","yes","1050","legacy","77","15","C:/Users/Kristen/Documents/opPreviewExperiment-master/procedure/subject-25.csv","legacy","Kafkaesque Koffka","3.2.6","add","0","a","NA","NA","z","l","8088","NA","NA","15196","8088","2","4743","legacy","small","1024","2","48000","-16","experiment","2_7_add_true.jpg","25","odd","legacy","327028","NA","75876","NA","NA","2023","NA","2036","67787","327029","332926","17233","65608","2024","mousetracking operator preview effect","0","0","0","no","true","no","1680"
"negative","undefined","1","undefined","undefined","white","no","legacy","legacy","legacy","0","relative","undefined","undefined","78","NA","0","0","0","0","0","0","0","94","94","0","15","0","no","04/29/19 12:42:42","A simple template for the mouse-tracking paradigm","yes","Experiment-TF.osexp","C:\Users\Kristen\Documents\opPreviewExperiment-master\procedure","no","mono","no","24","no","black","no","yes","1050","legacy","78","15","C:/Users/Kristen/Documents/opPreviewExperiment-master/procedure/subject-25.csv","legacy","Kafkaesque Koffka","3.2.6","mult","0","a","NA","NA","z","l","8088","NA","NA","15196","8088","2","1791","legacy","small","1024","2","48000","-16","experiment","2_7_mult_true.jpg","25","odd","legacy","332954","NA","75876","NA","NA","2023","NA","2036","67787","332954","335887","17233","65608","2024","mousetracking operator preview effect","0","0","0","no","true","no","1680"
"neutral","undefined","1","undefined","undefined","white","no","legacy","legacy","legacy","0","relative","undefined","undefined","79","NA","0","0","0","0","0","0","0","95","95","0","15","0","no","04/29/19 12:42:42","A simple template for the mouse-tracking paradigm","yes","Experiment-TF.osexp","C:\Users\Kristen\Documents\opPreviewExperiment-master\procedure","no","mono","no","24","no","black","no","yes","1050","legacy","79","15","C:/Users/Kristen/Documents/opPreviewExperiment-master/procedure/subject-25.csv","legacy","Kafkaesque Koffka","3.2.6","add","0","a","NA","NA","z","l","8088","NA","NA","15196","8088","2","3466","legacy","large","1024","2","48000","-16","experiment","4_9_add_true.jpg","25","odd","legacy","335909","NA","75876","NA","NA","2023","NA","2036","67787","335909","340332","17233","65608","2024","mousetracking operator preview effect","0","0","0","no","true","no","1680"
"neutral","undefined","1","undefined","undefined","white","no","legacy","legacy","legacy","0","relative","undefined","undefined","80","NA","0","0","0","0","0","0","0","96","96","0","15","0","no","04/29/19 12:42:42","A simple template for the mouse-tracking paradigm","yes","Experiment-TF.osexp","C:\Users\Kristen\Documents\opPreviewExperiment-master\procedure","no","mono","no","24","no","black","no","yes","1050","legacy","80","15","C:/Users/Kristen/Documents/opPreviewExperiment-master/procedure/subject-25.csv","legacy","Kafkaesque Koffka","3.2.6","mult","0","a","NA","NA","z","l","8088","NA","NA","15196","8088","2","1930","legacy","small","1024","2","48000","-16","experiment","2_7_mult_true.jpg","25","odd","legacy","340353","NA","75876","NA","NA","2023","NA","2036","67787","340353","343258","17233","65608","2024","mousetracking operator preview effect","0","0","0","no","true","no","1680"
"neutral","undefined","1","undefined","undefined","white","no","legacy","legacy","legacy","0","relative","undefined","undefined","81","NA","0","0","0","0","0","0","0","97","97","0","15","0","no","04/29/19 12:42:42","A simple template for the mouse-tracking paradigm","yes","Experiment-TF.osexp","C:\Users\Kristen\Documents\opPreviewExperiment-master\procedure","no","mono","no","24","no","black","no","yes","1050","legacy","81","15","C:/Users/Kristen/Documents/opPreviewExperiment-master/procedure/subject-25.csv","legacy","Kafkaesque Koffka","3.2.6","mult","0","l","NA","NA","z","l","8088","NA","NA","15196","8088","2","1580","legacy","small","1024","2","48000","-16","experiment","3_6_mult_FNI.jpg","25","odd","legacy","343280","NA","75876","NA","NA","2023","NA","2036","67787","343280","345838","17233","65608","2024","mousetracking operator preview effect","0","0","0","no","false","no","1680"
"neutral","undefined","1","undefined","undefined","white","no","legacy","legacy","legacy","0","relative","undefined","undefined","82","NA","0","0","0","0","0","0","0","98","98","0","15","0","no","04/29/19 12:42:42","A simple template for the mouse-tracking paradigm","yes","Experiment-TF.osexp","C:\Users\Kristen\Documents\opPreviewExperiment-master\procedure","no","mono","no","24","no","black","no","yes","1050","legacy","82","15","C:/Users/Kristen/Documents/opPreviewExperiment-master/procedure/subject-25.csv","legacy","Kafkaesque Koffka","3.2.6","mult","0","l","NA","NA","z","l","8088","NA","NA","15196","8088","2","1083","legacy","small","1024","2","48000","-16","experiment","5_3_mult_FNI.jpg","25","odd","legacy","345861","NA","75876","NA","NA","2023","NA","2036","67787","345861","347924","17233","65608","2024","mousetracking operator preview effect","0","0","0","no","false","no","1680"
"negative","undefined","1","undefined","undefined","white","no","legacy","legacy","legacy","0","relative","undefined","undefined","83","NA","0","0","0","0","0","0","0","99","99","0","15","0","no","04/29/19 12:42:42","A simple template for the mouse-tracking paradigm","yes","Experiment-TF.osexp","C:\Users\Kristen\Documents\opPreviewExperiment-master\procedure","no","mono","no","24","no","black","no","yes","1050","legacy","83","15","C:/Users/Kristen/Documents/opPreviewExperiment-master/procedure/subject-25.csv","legacy","Kafkaesque Koffka","3.2.6","mult","0","l","NA","NA","z","l","8088","NA","NA","15196","8088","2","1817","legacy","large","1024","2","48000","-16","experiment","6_8_mult_FI.jpg","25","odd","legacy","347945","NA","75876","NA","NA","2023","NA","2036","67787","347945","350910","17233","65608","2024","mousetracking operator preview effect","0","0","0","no","false","no","1680"
"neutral","undefined","1","undefined","undefined","white","no","legacy","legacy","legacy","0","relative","undefined","undefined","84","NA","0","0","0","0","0","0","0","100","100","0","15","0","no","04/29/19 12:42:42","A simple template for the mouse-tracking paradigm","yes","Experiment-TF.osexp","C:\Users\Kristen\Documents\opPreviewExperiment-master\procedure","no","mono","no","24","no","black","no","yes","1050","legacy","84","15","C:/Users/Kristen/Documents/opPreviewExperiment-master/procedure/subject-25.csv","legacy","Kafkaesque Koffka","3.2.6","add","0","l","NA","NA","z","l","8088","NA","NA","15196","8088","2","946","legacy","large","1024","2","48000","-16","experiment","4_9_add_FI.jpg","25","odd","legacy","350941","NA","75876","NA","NA","2023","NA","2036","67787","350941","352865","17233","65608","2024","mousetracking operator preview effect","0","0","0","no","false","no","1680"
"negative","undefined","1","undefined","undefined","white","no","legacy","legacy","legacy","0","relative","undefined","undefined","85","NA","0","0","0","0","0","0","0","101","101","0","15","0","no","04/29/19 12:42:42","A simple template for the mouse-tracking paradigm","yes","Experiment-TF.osexp","C:\Users\Kristen\Documents\opPreviewExperiment-master\procedure","no","mono","no","24","no","black","no","yes","1050","legacy","85","15","C:/Users/Kristen/Documents/opPreviewExperiment-master/procedure/subject-25.csv","legacy","Kafkaesque Koffka","3.2.6","mult","0","l","NA","NA","z","l","8088","NA","NA","15196","8088","2","1963","legacy","large","1024","2","48000","-16","experiment","8_4_mult_FI.jpg","25","odd","legacy","352896","NA","75876","NA","NA","2023","NA","2036","67787","352896","356013","17233","65608","2024","mousetracking operator preview effect","0","0","0","no","false","no","1680"
"neutral","undefined","1","undefined","undefined","white","no","legacy","legacy","legacy","0","relative","undefined","undefined","86","NA","0","0","0","0","0","0","0","102","102","0","15","0","no","04/29/19 12:42:42","A simple template for the mouse-tracking paradigm","yes","Experiment-TF.osexp","C:\Users\Kristen\Documents\opPreviewExperiment-master\procedure","no","mono","no","24","no","black","no","yes","1050","legacy","86","15","C:/Users/Kristen/Documents/opPreviewExperiment-master/procedure/subject-25.csv","legacy","Kafkaesque Koffka","3.2.6","add","0","l","NA","NA","z","l","8088","NA","NA","15196","8088","2","1020","legacy","large","1024","2","48000","-16","experiment","6_8_add_FI.jpg","25","odd","legacy","356043","NA","75876","NA","NA","2023","NA","2036","67787","356043","358035","17233","65608","2024","mousetracking operator preview effect","0","0","0","no","false","no","1680"
"negative","undefined","1","undefined","undefined","white","no","legacy","legacy","legacy","0","relative","undefined","undefined","87","NA","0","0","0","0","0","0","0","103","103","0","15","0","no","04/29/19 12:42:42","A simple template for the mouse-tracking paradigm","yes","Experiment-TF.osexp","C:\Users\Kristen\Documents\opPreviewExperiment-master\procedure","no","mono","no","24","no","black","no","yes","1050","legacy","87","15","C:/Users/Kristen/Documents/opPreviewExperiment-master/procedure/subject-25.csv","legacy","Kafkaesque Koffka","3.2.6","add","0","a","NA","NA","z","l","8088","NA","NA","15196","8088","2","2547","legacy","large","1024","2","48000","-16","experiment","4_9_add_true.jpg","25","odd","legacy","358059","NA","75876","NA","NA","2023","NA","2036","67787","358059","361747","17233","65608","2024","mousetracking operator preview effect","0","0","0","no","true","no","1680"
"negative","undefined","1","undefined","undefined","white","no","legacy","legacy","legacy","0","relative","undefined","undefined","88","NA","0","0","0","0","0","0","0","104","104","0","15","0","no","04/29/19 12:42:42","A simple template for the mouse-tracking paradigm","yes","Experiment-TF.osexp","C:\Users\Kristen\Documents\opPreviewExperiment-master\procedure","no","mono","no","24","no","black","no","yes","1050","legacy","88","15","C:/Users/Kristen/Documents/opPreviewExperiment-master/procedure/subject-25.csv","legacy","Kafkaesque Koffka","3.2.6","add","0","l","NA","NA","z","l","8088","NA","NA","15196","8088","2","2214","legacy","large","1024","2","48000","-16","experiment","4_9_add_FNI.jpg","25","odd","legacy","361768","NA","75876","NA","NA","2023","NA","2036","67787","361768","365138","17233","65608","2024","mousetracking operator preview effect","0","0","0","no","false","no","1680"
"negative","undefined","1","undefined","undefined","white","no","legacy","legacy","legacy","0","relative","undefined","undefined","89","NA","0","0","0","0","0","0","0","105","105","0","15","0","no","04/29/19 12:42:42","A simple template for the mouse-tracking paradigm","yes","Experiment-TF.osexp","C:\Users\Kristen\Documents\opPreviewExperiment-master\procedure","no","mono","no","24","no","black","no","yes","1050","legacy","89","15","C:/Users/Kristen/Documents/opPreviewExperiment-master/procedure/subject-25.csv","legacy","Kafkaesque Koffka","3.2.6","mult","0","a","NA","NA","z","l","8088","NA","NA","15196","8088","2","1234","legacy","large","1024","2","48000","-16","experiment","8_4_mult_true.jpg","25","odd","legacy","365162","NA","75876","NA","NA","2023","NA","2036","67787","365162","367547","17233","65608","2024","mousetracking operator preview effect","0","0","0","no","true","no","1680"
"neutral","undefined","1","undefined","undefined","white","no","legacy","legacy","legacy","0","relative","undefined","undefined","90","NA","0","0","0","0","0","0","0","106","106","0","15","0","no","04/29/19 12:42:42","A simple template for the mouse-tracking paradigm","yes","Experiment-TF.osexp","C:\Users\Kristen\Documents\opPreviewExperiment-master\procedure","no","mono","no","24","no","black","no","yes","1050","legacy","90","15","C:/Users/Kristen/Documents/opPreviewExperiment-master/procedure/subject-25.csv","legacy","Kafkaesque Koffka","3.2.6","mult","0","a","NA","NA","z","l","8088","NA","NA","15196","8088","2","4514","legacy","small","1024","2","48000","-16","experiment","5_3_mult_true.jpg","25","odd","legacy","367567","NA","75876","NA","NA","2023","NA","2036","67787","367567","373058","17233","65608","2024","mousetracking operator preview effect","0","0","0","no","true","no","1680"
"negative","undefined","1","undefined","undefined","white","no","legacy","legacy","legacy","0","relative","undefined","undefined","91","NA","0","0","0","0","0","0","0","107","107","0","15","0","no","04/29/19 12:42:42","A simple template for the mouse-tracking paradigm","yes","Experiment-TF.osexp","C:\Users\Kristen\Documents\opPreviewExperiment-master\procedure","no","mono","no","24","no","black","no","yes","1050","legacy","91","15","C:/Users/Kristen/Documents/opPreviewExperiment-master/procedure/subject-25.csv","legacy","Kafkaesque Koffka","3.2.6","add","0","l","NA","NA","z","l","8088","NA","NA","15196","8088","2","797","legacy","small","1024","2","48000","-16","experiment","5_3_add_FNI.jpg","25","odd","legacy","373081","NA","75876","NA","NA","2023","NA","2036","67787","373081","375024","17233","65608","2024","mousetracking operator preview effect","0","0","0","no","false","no","1680"
"negative","undefined","1","undefined","undefined","white","no","legacy","legacy","legacy","0","relative","undefined","undefined","92","NA","0","0","0","0","0","0","0","108","108","0","15","0","no","04/29/19 12:42:42","A simple template for the mouse-tracking paradigm","yes","Experiment-TF.osexp","C:\Users\Kristen\Documents\opPreviewExperiment-master\procedure","no","mono","no","24","no","black","no","yes","1050","legacy","92","15","C:/Users/Kristen/Documents/opPreviewExperiment-master/procedure/subject-25.csv","legacy","Kafkaesque Koffka","3.2.6","add","0","l","NA","NA","z","l","8088","NA","NA","15196","8088","2","1196","legacy","large","1024","2","48000","-16","experiment","4_9_add_FI.jpg","25","odd","legacy","375045","NA","75876","NA","NA","2023","NA","2036","67787","375045","377394","17233","65608","2024","mousetracking operator preview effect","0","0","0","no","false","no","1680"
