"SOAcondition","acc","accuracy","average_response_time","avg_rt","background","bidi","canvas_backend","clock_backend","color_backend","compensation","coordinates","correct","correct_instruction1","count_block1_sequence","count_block2_sequence","count_block_1","count_block_2","count_breakScreen","count_experiment","count_finish","count_instruction1","count_instruction2","count_keyboard_script","count_logger","count_practiceBlock","count_practice_sequence","count_setup_script","custom_cursor","datetime","description","disable_garbage_collection","experiment_file","experiment_path","font_bold","font_family","font_italic","font_size","font_underline","foreground","form_clicks","fullscreen","height","keyboard_backend","live_row","live_row_practiceBlock","logfile","mouse_backend","opensesame_codename","opensesame_version","operation","repeat_cycle","response","response_breakScreen","response_finish","response_instruction1","response_instruction2","response_time","response_time_breakScreen","response_time_finish","response_time_instruction1","response_time_instruction2","round_decimals","rt","sampler_backend","size","sound_buf_size","sound_channels","sound_freq","sound_sample_size","start","stimulus","subject_nr","subject_parity","synth_backend","time_block1_sequence","time_block2_sequence","time_block_1","time_block_2","time_breakScreen","time_experiment","time_finish","time_instruction1","time_instruction2","time_keyboard_script","time_logger","time_practiceBlock","time_practice_sequence","time_setup_script","title","total_correct","total_response_time","total_responses","transparent_variables","truth","uniform_coordinates","width"
"negative","undefined","1","undefined","undefined","white","no","legacy","legacy","legacy","0","relative","undefined","undefined","NA","NA","0","0","0","0","0","0","0","0","0","0","0","0","no","03/31/19 18:48:06","A simple template for the mouse-tracking paradigm","yes","Experiment-TF.osexp","C:\Users\Kristen\Documents\opPreviewExperiment-master\procedure","no","mono","no","24","no","black","no","yes","1050","legacy","0","0","C:/Users/Kristen/Documents/opPreviewExperiment-master/procedure/subject-11.csv","legacy","Kafkaesque Koffka","3.2.6","add","0","a","NA","NA","a","NA","67966","NA","NA","67966","NA","2","2924","legacy","NA","1024","2","48000","-16","experiment","1_4_add_T.jpg","11","odd","legacy","NA","NA","NA","NA","NA","2601","NA","2618","NA","70588","74745","70585","70588","2603","mousetracking operator preview effect","0","0","0","no","true","no","1680"
"neutral","undefined","1","undefined","undefined","white","no","legacy","legacy","legacy","0","relative","undefined","undefined","NA","NA","0","0","0","0","0","0","0","1","1","0","1","0","no","03/31/19 18:48:06","A simple template for the mouse-tracking paradigm","yes","Experiment-TF.osexp","C:\Users\Kristen\Documents\opPreviewExperiment-master\procedure","no","mono","no","24","no","black","no","yes","1050","legacy","1","1","C:/Users/Kristen/Documents/opPreviewExperiment-master/procedure/subject-11.csv","legacy","Kafkaesque Koffka","3.2.6","add","0","a","NA","NA","a","NA","67966","NA","NA","67966","NA","2","1589","legacy","NA","1024","2","48000","-16","experiment","1_4_add_T.jpg","11","odd","legacy","NA","NA","NA","NA","NA","2601","NA","2618","NA","74780","77338","70585","74780","2603","mousetracking operator preview effect","0","0","0","no","true","no","1680"
"negative","undefined","1","undefined","undefined","white","no","legacy","legacy","legacy","0","relative","undefined","undefined","NA","NA","0","0","0","0","0","0","0","2","2","0","2","0","no","03/31/19 18:48:06","A simple template for the mouse-tracking paradigm","yes","Experiment-TF.osexp","C:\Users\Kristen\Documents\opPreviewExperiment-master\procedure","no","mono","no","24","no","black","no","yes","1050","legacy","2","2","C:/Users/Kristen/Documents/opPreviewExperiment-master/procedure/subject-11.csv","legacy","Kafkaesque Koffka","3.2.6","mult","0","l","NA","NA","a","NA","67966","NA","NA","67966","NA","2","2732","legacy","NA","1024","2","48000","-16","experiment","0_3_mult_F.jpg","11","odd","legacy","NA","NA","NA","NA","NA","2601","NA","2618","NA","77359","81272","70585","77359","2603","mousetracking operator preview effect","0","0","0","no","false","no","1680"
"negative","undefined","1","undefined","undefined","white","no","legacy","legacy","legacy","0","relative","undefined","undefined","NA","NA","0","0","0","0","0","0","0","3","3","0","3","0","no","03/31/19 18:48:06","A simple template for the mouse-tracking paradigm","yes","Experiment-TF.osexp","C:\Users\Kristen\Documents\opPreviewExperiment-master\procedure","no","mono","no","24","no","black","no","yes","1050","legacy","3","3","C:/Users/Kristen/Documents/opPreviewExperiment-master/procedure/subject-11.csv","legacy","Kafkaesque Koffka","3.2.6","mult","0","l","NA","NA","a","NA","67966","NA","NA","67966","NA","2","2348","legacy","NA","1024","2","48000","-16","experiment","1_4_mult_F.jpg","11","odd","legacy","NA","NA","NA","NA","NA","2601","NA","2618","NA","81293","84802","70585","81293","2603","mousetracking operator preview effect","0","0","0","no","false","no","1680"
"negative","undefined","1","undefined","undefined","white","no","legacy","legacy","legacy","0","relative","undefined","undefined","NA","NA","0","0","0","0","0","0","0","4","4","0","4","0","no","03/31/19 18:48:06","A simple template for the mouse-tracking paradigm","yes","Experiment-TF.osexp","C:\Users\Kristen\Documents\opPreviewExperiment-master\procedure","no","mono","no","24","no","black","no","yes","1050","legacy","4","4","C:/Users/Kristen/Documents/opPreviewExperiment-master/procedure/subject-11.csv","legacy","Kafkaesque Koffka","3.2.6","add","0","a","NA","NA","a","NA","67966","NA","NA","67966","NA","2","1651","legacy","NA","1024","2","48000","-16","experiment","0_3_add_T.jpg","11","odd","legacy","NA","NA","NA","NA","NA","2601","NA","2618","NA","84822","87631","70585","84822","2603","mousetracking operator preview effect","0","0","0","no","true","no","1680"
"neutral","undefined","1","undefined","undefined","white","no","legacy","legacy","legacy","0","relative","undefined","undefined","NA","NA","0","0","0","0","0","0","0","5","5","0","5","0","no","03/31/19 18:48:06","A simple template for the mouse-tracking paradigm","yes","Experiment-TF.osexp","C:\Users\Kristen\Documents\opPreviewExperiment-master\procedure","no","mono","no","24","no","black","no","yes","1050","legacy","5","5","C:/Users/Kristen/Documents/opPreviewExperiment-master/procedure/subject-11.csv","legacy","Kafkaesque Koffka","3.2.6","mult","0","l","NA","NA","a","NA","67966","NA","NA","67966","NA","2","2534","legacy","NA","1024","2","48000","-16","experiment","1_4_mult_F.jpg","11","odd","legacy","NA","NA","NA","NA","NA","2601","NA","2618","NA","87653","91161","70585","87653","2603","mousetracking operator preview effect","0","0","0","no","false","no","1680"
"negative","undefined","1","undefined","undefined","white","no","legacy","legacy","legacy","0","relative","undefined","undefined","NA","NA","0","0","0","0","0","0","0","6","6","0","6","0","no","03/31/19 18:48:06","A simple template for the mouse-tracking paradigm","yes","Experiment-TF.osexp","C:\Users\Kristen\Documents\opPreviewExperiment-master\procedure","no","mono","no","24","no","black","no","yes","1050","legacy","6","6","C:/Users/Kristen/Documents/opPreviewExperiment-master/procedure/subject-11.csv","legacy","Kafkaesque Koffka","3.2.6","add","0","l","NA","NA","a","NA","67966","NA","NA","67966","NA","2","2408","legacy","NA","1024","2","48000","-16","experiment","0_3_add_F.jpg","11","odd","legacy","NA","NA","NA","NA","NA","2601","NA","2618","NA","91186","94759","70585","91186","2603","mousetracking operator preview effect","0","0","0","no","false","no","1680"
"neutral","undefined","1","undefined","undefined","white","no","legacy","legacy","legacy","0","relative","undefined","undefined","NA","NA","0","0","0","0","0","0","0","7","7","0","7","0","no","03/31/19 18:48:06","A simple template for the mouse-tracking paradigm","yes","Experiment-TF.osexp","C:\Users\Kristen\Documents\opPreviewExperiment-master\procedure","no","mono","no","24","no","black","no","yes","1050","legacy","7","7","C:/Users/Kristen/Documents/opPreviewExperiment-master/procedure/subject-11.csv","legacy","Kafkaesque Koffka","3.2.6","add","0","l","NA","NA","a","NA","67966","NA","NA","67966","NA","2","2461","legacy","NA","1024","2","48000","-16","experiment","1_4_add_F.jpg","11","odd","legacy","NA","NA","NA","NA","NA","2601","NA","2618","NA","94779","98227","70585","94779","2603","mousetracking operator preview effect","0","0","0","no","false","no","1680"
"neutral","undefined","1","undefined","undefined","white","no","legacy","legacy","legacy","0","relative","undefined","undefined","NA","NA","0","0","0","0","0","0","0","8","8","0","8","0","no","03/31/19 18:48:06","A simple template for the mouse-tracking paradigm","yes","Experiment-TF.osexp","C:\Users\Kristen\Documents\opPreviewExperiment-master\procedure","no","mono","no","24","no","black","no","yes","1050","legacy","8","8","C:/Users/Kristen/Documents/opPreviewExperiment-master/procedure/subject-11.csv","legacy","Kafkaesque Koffka","3.2.6","add","0","l","NA","NA","a","NA","67966","NA","NA","67966","NA","2","1661","legacy","NA","1024","2","48000","-16","experiment","0_3_add_F.jpg","11","odd","legacy","NA","NA","NA","NA","NA","2601","NA","2618","NA","98251","100889","70585","98251","2603","mousetracking operator preview effect","0","0","0","no","false","no","1680"
"negative","undefined","1","undefined","undefined","white","no","legacy","legacy","legacy","0","relative","undefined","undefined","NA","NA","0","0","0","0","0","0","0","9","9","0","9","0","no","03/31/19 18:48:06","A simple template for the mouse-tracking paradigm","yes","Experiment-TF.osexp","C:\Users\Kristen\Documents\opPreviewExperiment-master\procedure","no","mono","no","24","no","black","no","yes","1050","legacy","9","9","C:/Users/Kristen/Documents/opPreviewExperiment-master/procedure/subject-11.csv","legacy","Kafkaesque Koffka","3.2.6","mult","0","a","NA","NA","a","NA","67966","NA","NA","67966","NA","2","3533","legacy","NA","1024","2","48000","-16","experiment","0_3_mult_T.jpg","11","odd","legacy","NA","NA","NA","NA","NA","2601","NA","2618","NA","100902","105600","70585","100902","2603","mousetracking operator preview effect","0","0","0","no","true","no","1680"
"negative","undefined","1","undefined","undefined","white","no","legacy","legacy","legacy","0","relative","undefined","undefined","NA","NA","0","0","0","0","0","0","0","10","10","0","10","0","no","03/31/19 18:48:06","A simple template for the mouse-tracking paradigm","yes","Experiment-TF.osexp","C:\Users\Kristen\Documents\opPreviewExperiment-master\procedure","no","mono","no","24","no","black","no","yes","1050","legacy","10","10","C:/Users/Kristen/Documents/opPreviewExperiment-master/procedure/subject-11.csv","legacy","Kafkaesque Koffka","3.2.6","add","0","l","NA","NA","a","NA","67966","NA","NA","67966","NA","2","1642","legacy","NA","1024","2","48000","-16","experiment","1_4_add_F.jpg","11","odd","legacy","NA","NA","NA","NA","NA","2601","NA","2618","NA","105621","108407","70585","105621","2603","mousetracking operator preview effect","0","0","0","no","false","no","1680"
"negative","undefined","1","undefined","undefined","white","no","legacy","legacy","legacy","0","relative","undefined","undefined","NA","NA","0","0","0","0","0","0","0","11","11","0","11","0","no","03/31/19 18:48:06","A simple template for the mouse-tracking paradigm","yes","Experiment-TF.osexp","C:\Users\Kristen\Documents\opPreviewExperiment-master\procedure","no","mono","no","24","no","black","no","yes","1050","legacy","11","11","C:/Users/Kristen/Documents/opPreviewExperiment-master/procedure/subject-11.csv","legacy","Kafkaesque Koffka","3.2.6","mult","0","a","NA","NA","a","NA","67966","NA","NA","67966","NA","2","1377","legacy","NA","1024","2","48000","-16","experiment","1_4_mult_T.jpg","11","odd","legacy","NA","NA","NA","NA","NA","2601","NA","2618","NA","108426","110964","70585","108426","2603","mousetracking operator preview effect","0","0","0","no","true","no","1680"
"neutral","undefined","1","undefined","undefined","white","no","legacy","legacy","legacy","0","relative","undefined","undefined","NA","NA","0","0","0","0","0","0","0","12","12","0","12","0","no","03/31/19 18:48:06","A simple template for the mouse-tracking paradigm","yes","Experiment-TF.osexp","C:\Users\Kristen\Documents\opPreviewExperiment-master\procedure","no","mono","no","24","no","black","no","yes","1050","legacy","12","12","C:/Users/Kristen/Documents/opPreviewExperiment-master/procedure/subject-11.csv","legacy","Kafkaesque Koffka","3.2.6","mult","0","a","NA","NA","a","NA","67966","NA","NA","67966","NA","2","1758","legacy","NA","1024","2","48000","-16","experiment","1_4_mult_T.jpg","11","odd","legacy","NA","NA","NA","NA","NA","2601","NA","2618","NA","110984","113716","70585","110984","2603","mousetracking operator preview effect","0","0","0","no","true","no","1680"
"neutral","undefined","1","undefined","undefined","white","no","legacy","legacy","legacy","0","relative","undefined","undefined","NA","NA","0","0","0","0","0","0","0","13","13","0","13","0","no","03/31/19 18:48:06","A simple template for the mouse-tracking paradigm","yes","Experiment-TF.osexp","C:\Users\Kristen\Documents\opPreviewExperiment-master\procedure","no","mono","no","24","no","black","no","yes","1050","legacy","13","13","C:/Users/Kristen/Documents/opPreviewExperiment-master/procedure/subject-11.csv","legacy","Kafkaesque Koffka","3.2.6","mult","0","l","NA","NA","a","NA","67966","NA","NA","67966","NA","2","1463","legacy","NA","1024","2","48000","-16","experiment","0_3_mult_F.jpg","11","odd","legacy","NA","NA","NA","NA","NA","2601","NA","2618","NA","113747","116187","70585","113747","2603","mousetracking operator preview effect","0","0","0","no","false","no","1680"
"neutral","undefined","1","undefined","undefined","white","no","legacy","legacy","legacy","0","relative","undefined","undefined","NA","NA","0","0","0","0","0","0","0","14","14","0","14","0","no","03/31/19 18:48:06","A simple template for the mouse-tracking paradigm","yes","Experiment-TF.osexp","C:\Users\Kristen\Documents\opPreviewExperiment-master\procedure","no","mono","no","24","no","black","no","yes","1050","legacy","14","14","C:/Users/Kristen/Documents/opPreviewExperiment-master/procedure/subject-11.csv","legacy","Kafkaesque Koffka","3.2.6","mult","0","a","NA","NA","a","NA","67966","NA","NA","67966","NA","2","1663","legacy","NA","1024","2","48000","-16","experiment","0_3_mult_T.jpg","11","odd","legacy","NA","NA","NA","NA","NA","2601","NA","2618","NA","116213","118854","70585","116213","2603","mousetracking operator preview effect","0","0","0","no","true","no","1680"
"neutral","undefined","1","undefined","undefined","white","no","legacy","legacy","legacy","0","relative","undefined","undefined","NA","NA","0","0","0","0","0","0","0","15","15","0","15","0","no","03/31/19 18:48:06","A simple template for the mouse-tracking paradigm","yes","Experiment-TF.osexp","C:\Users\Kristen\Documents\opPreviewExperiment-master\procedure","no","mono","no","24","no","black","no","yes","1050","legacy","15","15","C:/Users/Kristen/Documents/opPreviewExperiment-master/procedure/subject-11.csv","legacy","Kafkaesque Koffka","3.2.6","add","0","a","NA","NA","a","NA","67966","NA","NA","67966","NA","2","2073","legacy","NA","1024","2","48000","-16","experiment","0_3_add_T.jpg","11","odd","legacy","NA","NA","NA","NA","NA","2601","NA","2618","NA","118884","121933","70585","118884","2603","mousetracking operator preview effect","0","0","0","no","true","no","1680"
"negative","undefined","1","undefined","undefined","white","no","legacy","legacy","legacy","0","relative","undefined","undefined","0","NA","0","0","0","0","0","0","0","16","16","0","15","0","no","03/31/19 18:48:06","A simple template for the mouse-tracking paradigm","yes","Experiment-TF.osexp","C:\Users\Kristen\Documents\opPreviewExperiment-master\procedure","no","mono","no","24","no","black","no","yes","1050","legacy","0","15","C:/Users/Kristen/Documents/opPreviewExperiment-master/procedure/subject-11.csv","legacy","Kafkaesque Koffka","3.2.6","mult","0","l","NA","NA","a","a","13830","NA","NA","67966","13830","2","1805","legacy","small","1024","2","48000","-16","experiment","8_2_mult_FNI.jpg","11","odd","legacy","135790","NA","135786","NA","NA","2601","NA","2618","121956","135790","138760","70585","118884","2603","mousetracking operator preview effect","0","0","0","no","false","no","1680"
"negative","undefined","1","undefined","undefined","white","no","legacy","legacy","legacy","0","relative","undefined","undefined","1","NA","0","0","0","0","0","0","0","17","17","0","15","0","no","03/31/19 18:48:06","A simple template for the mouse-tracking paradigm","yes","Experiment-TF.osexp","C:\Users\Kristen\Documents\opPreviewExperiment-master\procedure","no","mono","no","24","no","black","no","yes","1050","legacy","1","15","C:/Users/Kristen/Documents/opPreviewExperiment-master/procedure/subject-11.csv","legacy","Kafkaesque Koffka","3.2.6","add","0","l","NA","NA","a","a","13830","NA","NA","67966","13830","2","2196","legacy","large","1024","2","48000","-16","experiment","6_8_add_FI.jpg","11","odd","legacy","138789","NA","135786","NA","NA","2601","NA","2618","121956","138789","142155","70585","118884","2603","mousetracking operator preview effect","0","0","0","no","false","no","1680"
"negative","undefined","1","undefined","undefined","white","no","legacy","legacy","legacy","0","relative","undefined","undefined","2","NA","0","0","0","0","0","0","0","18","18","0","15","0","no","03/31/19 18:48:06","A simple template for the mouse-tracking paradigm","yes","Experiment-TF.osexp","C:\Users\Kristen\Documents\opPreviewExperiment-master\procedure","no","mono","no","24","no","black","no","yes","1050","legacy","2","15","C:/Users/Kristen/Documents/opPreviewExperiment-master/procedure/subject-11.csv","legacy","Kafkaesque Koffka","3.2.6","add","0","l","NA","NA","a","a","13830","NA","NA","67966","13830","2","1613","legacy","small","1024","2","48000","-16","experiment","8_2_add_FNI.jpg","11","odd","legacy","142185","NA","135786","NA","NA","2601","NA","2618","121956","142185","144966","70585","118884","2603","mousetracking operator preview effect","0","0","0","no","false","no","1680"
"neutral","undefined","1","undefined","undefined","white","no","legacy","legacy","legacy","0","relative","undefined","undefined","3","NA","0","0","0","0","0","0","0","19","19","0","15","0","no","03/31/19 18:48:06","A simple template for the mouse-tracking paradigm","yes","Experiment-TF.osexp","C:\Users\Kristen\Documents\opPreviewExperiment-master\procedure","no","mono","no","24","no","black","no","yes","1050","legacy","3","15","C:/Users/Kristen/Documents/opPreviewExperiment-master/procedure/subject-11.csv","legacy","Kafkaesque Koffka","3.2.6","add","0","a","NA","NA","a","a","13830","NA","NA","67966","13830","2","1315","legacy","small","1024","2","48000","-16","experiment","8_2_add_true.jpg","11","odd","legacy","144995","NA","135786","NA","NA","2601","NA","2618","121956","144995","147296","70585","118884","2603","mousetracking operator preview effect","0","0","0","no","true","no","1680"
"negative","undefined","0","undefined","undefined","white","no","legacy","legacy","legacy","0","relative","undefined","undefined","4","NA","0","0","0","0","0","0","0","20","20","0","15","0","no","03/31/19 18:48:06","A simple template for the mouse-tracking paradigm","yes","Experiment-TF.osexp","C:\Users\Kristen\Documents\opPreviewExperiment-master\procedure","no","mono","no","24","no","black","no","yes","1050","legacy","4","15","C:/Users/Kristen/Documents/opPreviewExperiment-master/procedure/subject-11.csv","legacy","Kafkaesque Koffka","3.2.6","mult","0","l","NA","NA","a","a","13830","NA","NA","67966","13830","2","1173","legacy","small","1024","2","48000","-16","experiment","5_3_mult_true.jpg","11","odd","legacy","147316","NA","135786","NA","NA","2601","NA","2618","121956","147317","150672","70585","118884","2603","mousetracking operator preview effect","0","0","0","no","true","no","1680"
"neutral","undefined","1","undefined","undefined","white","no","legacy","legacy","legacy","0","relative","undefined","undefined","5","NA","0","0","0","0","0","0","0","21","21","0","15","0","no","03/31/19 18:48:06","A simple template for the mouse-tracking paradigm","yes","Experiment-TF.osexp","C:\Users\Kristen\Documents\opPreviewExperiment-master\procedure","no","mono","no","24","no","black","no","yes","1050","legacy","5","15","C:/Users/Kristen/Documents/opPreviewExperiment-master/procedure/subject-11.csv","legacy","Kafkaesque Koffka","3.2.6","mult","0","l","NA","NA","a","a","13830","NA","NA","67966","13830","2","2470","legacy","small","1024","2","48000","-16","experiment","5_3_mult_FNI.jpg","11","odd","legacy","150713","NA","135786","NA","NA","2601","NA","2618","121956","150714","154183","70585","118884","2603","mousetracking operator preview effect","0","0","0","no","false","no","1680"
"neutral","undefined","1","undefined","undefined","white","no","legacy","legacy","legacy","0","relative","undefined","undefined","6","NA","0","0","0","0","0","0","0","22","22","0","15","0","no","03/31/19 18:48:06","A simple template for the mouse-tracking paradigm","yes","Experiment-TF.osexp","C:\Users\Kristen\Documents\opPreviewExperiment-master\procedure","no","mono","no","24","no","black","no","yes","1050","legacy","6","15","C:/Users/Kristen/Documents/opPreviewExperiment-master/procedure/subject-11.csv","legacy","Kafkaesque Koffka","3.2.6","add","0","l","NA","NA","a","a","13830","NA","NA","67966","13830","2","2305","legacy","large","1024","2","48000","-16","experiment","8_4_add_FI.jpg","11","odd","legacy","154205","NA","135786","NA","NA","2601","NA","2618","121956","154205","157503","70585","118884","2603","mousetracking operator preview effect","0","0","0","no","false","no","1680"
"negative","undefined","1","undefined","undefined","white","no","legacy","legacy","legacy","0","relative","undefined","undefined","7","NA","0","0","0","0","0","0","0","23","23","0","15","0","no","03/31/19 18:48:06","A simple template for the mouse-tracking paradigm","yes","Experiment-TF.osexp","C:\Users\Kristen\Documents\opPreviewExperiment-master\procedure","no","mono","no","24","no","black","no","yes","1050","legacy","7","15","C:/Users/Kristen/Documents/opPreviewExperiment-master/procedure/subject-11.csv","legacy","Kafkaesque Koffka","3.2.6","mult","0","a","NA","NA","a","a","13830","NA","NA","67966","13830","2","1274","legacy","small","1024","2","48000","-16","experiment","2_7_mult_true.jpg","11","odd","legacy","157530","NA","135786","NA","NA","2601","NA","2618","121956","157531","159964","70585","118884","2603","mousetracking operator preview effect","0","0","0","no","true","no","1680"
"negative","undefined","1","undefined","undefined","white","no","legacy","legacy","legacy","0","relative","undefined","undefined","8","NA","0","0","0","0","0","0","0","24","24","0","15","0","no","03/31/19 18:48:06","A simple template for the mouse-tracking paradigm","yes","Experiment-TF.osexp","C:\Users\Kristen\Documents\opPreviewExperiment-master\procedure","no","mono","no","24","no","black","no","yes","1050","legacy","8","15","C:/Users/Kristen/Documents/opPreviewExperiment-master/procedure/subject-11.csv","legacy","Kafkaesque Koffka","3.2.6","add","0","l","NA","NA","a","a","13830","NA","NA","67966","13830","2","2780","legacy","large","1024","2","48000","-16","experiment","6_8_add_FNI.jpg","11","odd","legacy","159984","NA","135786","NA","NA","2601","NA","2618","121956","159984","163930","70585","118884","2603","mousetracking operator preview effect","0","0","0","no","false","no","1680"
"neutral","undefined","1","undefined","undefined","white","no","legacy","legacy","legacy","0","relative","undefined","undefined","9","NA","0","0","0","0","0","0","0","25","25","0","15","0","no","03/31/19 18:48:06","A simple template for the mouse-tracking paradigm","yes","Experiment-TF.osexp","C:\Users\Kristen\Documents\opPreviewExperiment-master\procedure","no","mono","no","24","no","black","no","yes","1050","legacy","9","15","C:/Users/Kristen/Documents/opPreviewExperiment-master/procedure/subject-11.csv","legacy","Kafkaesque Koffka","3.2.6","mult","0","a","NA","NA","a","a","13830","NA","NA","67966","13830","2","1865","legacy","large","1024","2","48000","-16","experiment","8_4_mult_true.jpg","11","odd","legacy","163952","NA","135786","NA","NA","2601","NA","2618","121956","163952","166788","70585","118884","2603","mousetracking operator preview effect","0","0","0","no","true","no","1680"
"negative","undefined","1","undefined","undefined","white","no","legacy","legacy","legacy","0","relative","undefined","undefined","10","NA","0","0","0","0","0","0","0","26","26","0","15","0","no","03/31/19 18:48:06","A simple template for the mouse-tracking paradigm","yes","Experiment-TF.osexp","C:\Users\Kristen\Documents\opPreviewExperiment-master\procedure","no","mono","no","24","no","black","no","yes","1050","legacy","10","15","C:/Users/Kristen/Documents/opPreviewExperiment-master/procedure/subject-11.csv","legacy","Kafkaesque Koffka","3.2.6","add","0","a","NA","NA","a","a","13830","NA","NA","67966","13830","2","2431","legacy","small","1024","2","48000","-16","experiment","2_7_add_true.jpg","11","odd","legacy","166808","NA","135786","NA","NA","2601","NA","2618","121956","166808","170408","70585","118884","2603","mousetracking operator preview effect","0","0","0","no","true","no","1680"
"neutral","undefined","1","undefined","undefined","white","no","legacy","legacy","legacy","0","relative","undefined","undefined","11","NA","0","0","0","0","0","0","0","27","27","0","15","0","no","03/31/19 18:48:06","A simple template for the mouse-tracking paradigm","yes","Experiment-TF.osexp","C:\Users\Kristen\Documents\opPreviewExperiment-master\procedure","no","mono","no","24","no","black","no","yes","1050","legacy","11","15","C:/Users/Kristen/Documents/opPreviewExperiment-master/procedure/subject-11.csv","legacy","Kafkaesque Koffka","3.2.6","mult","0","a","NA","NA","a","a","13830","NA","NA","67966","13830","2","3144","legacy","large","1024","2","48000","-16","experiment","9_7_mult_true.jpg","11","odd","legacy","170428","NA","135786","NA","NA","2601","NA","2618","121956","170428","174560","70585","118884","2603","mousetracking operator preview effect","0","0","0","no","true","no","1680"
"negative","undefined","1","undefined","undefined","white","no","legacy","legacy","legacy","0","relative","undefined","undefined","12","NA","0","0","0","0","0","0","0","28","28","0","15","0","no","03/31/19 18:48:06","A simple template for the mouse-tracking paradigm","yes","Experiment-TF.osexp","C:\Users\Kristen\Documents\opPreviewExperiment-master\procedure","no","mono","no","24","no","black","no","yes","1050","legacy","12","15","C:/Users/Kristen/Documents/opPreviewExperiment-master/procedure/subject-11.csv","legacy","Kafkaesque Koffka","3.2.6","mult","0","a","NA","NA","a","a","13830","NA","NA","67966","13830","2","1225","legacy","small","1024","2","48000","-16","experiment","8_2_mult_true.jpg","11","odd","legacy","174581","NA","135786","NA","NA","2601","NA","2618","121956","174581","176966","70585","118884","2603","mousetracking operator preview effect","0","0","0","no","true","no","1680"
"negative","undefined","1","undefined","undefined","white","no","legacy","legacy","legacy","0","relative","undefined","undefined","13","NA","0","0","0","0","0","0","0","29","29","0","15","0","no","03/31/19 18:48:06","A simple template for the mouse-tracking paradigm","yes","Experiment-TF.osexp","C:\Users\Kristen\Documents\opPreviewExperiment-master\procedure","no","mono","no","24","no","black","no","yes","1050","legacy","13","15","C:/Users/Kristen/Documents/opPreviewExperiment-master/procedure/subject-11.csv","legacy","Kafkaesque Koffka","3.2.6","mult","0","l","NA","NA","a","a","13830","NA","NA","67966","13830","2","1742","legacy","small","1024","2","48000","-16","experiment","3_6_mult_FI.jpg","11","odd","legacy","176986","NA","135786","NA","NA","2601","NA","2618","121956","176986","179895","70585","118884","2603","mousetracking operator preview effect","0","0","0","no","false","no","1680"
"negative","undefined","1","undefined","undefined","white","no","legacy","legacy","legacy","0","relative","undefined","undefined","14","NA","0","0","0","0","0","0","0","30","30","0","15","0","no","03/31/19 18:48:06","A simple template for the mouse-tracking paradigm","yes","Experiment-TF.osexp","C:\Users\Kristen\Documents\opPreviewExperiment-master\procedure","no","mono","no","24","no","black","no","yes","1050","legacy","14","15","C:/Users/Kristen/Documents/opPreviewExperiment-master/procedure/subject-11.csv","legacy","Kafkaesque Koffka","3.2.6","add","0","l","NA","NA","a","a","13830","NA","NA","67966","13830","2","2476","legacy","large","1024","2","48000","-16","experiment","4_9_add_FI.jpg","11","odd","legacy","179919","NA","135786","NA","NA","2601","NA","2618","121956","179919","183553","70585","118884","2603","mousetracking operator preview effect","0","0","0","no","false","no","1680"
"negative","undefined","1","undefined","undefined","white","no","legacy","legacy","legacy","0","relative","undefined","undefined","15","NA","0","0","0","0","0","0","0","31","31","0","15","0","no","03/31/19 18:48:06","A simple template for the mouse-tracking paradigm","yes","Experiment-TF.osexp","C:\Users\Kristen\Documents\opPreviewExperiment-master\procedure","no","mono","no","24","no","black","no","yes","1050","legacy","15","15","C:/Users/Kristen/Documents/opPreviewExperiment-master/procedure/subject-11.csv","legacy","Kafkaesque Koffka","3.2.6","mult","0","a","NA","NA","a","a","13830","NA","NA","67966","13830","2","1223","legacy","large","1024","2","48000","-16","experiment","8_4_mult_true.jpg","11","odd","legacy","183573","NA","135786","NA","NA","2601","NA","2618","121956","183573","185938","70585","118884","2603","mousetracking operator preview effect","0","0","0","no","true","no","1680"
"negative","undefined","1","undefined","undefined","white","no","legacy","legacy","legacy","0","relative","undefined","undefined","16","NA","0","0","0","0","0","0","0","32","32","0","15","0","no","03/31/19 18:48:06","A simple template for the mouse-tracking paradigm","yes","Experiment-TF.osexp","C:\Users\Kristen\Documents\opPreviewExperiment-master\procedure","no","mono","no","24","no","black","no","yes","1050","legacy","16","15","C:/Users/Kristen/Documents/opPreviewExperiment-master/procedure/subject-11.csv","legacy","Kafkaesque Koffka","3.2.6","add","0","l","NA","NA","a","a","13830","NA","NA","67966","13830","2","1771","legacy","small","1024","2","48000","-16","experiment","5_3_add_FI.jpg","11","odd","legacy","185958","NA","135786","NA","NA","2601","NA","2618","121956","185958","188894","70585","118884","2603","mousetracking operator preview effect","0","0","0","no","false","no","1680"
"neutral","undefined","1","undefined","undefined","white","no","legacy","legacy","legacy","0","relative","undefined","undefined","17","NA","0","0","0","0","0","0","0","33","33","0","15","0","no","03/31/19 18:48:06","A simple template for the mouse-tracking paradigm","yes","Experiment-TF.osexp","C:\Users\Kristen\Documents\opPreviewExperiment-master\procedure","no","mono","no","24","no","black","no","yes","1050","legacy","17","15","C:/Users/Kristen/Documents/opPreviewExperiment-master/procedure/subject-11.csv","legacy","Kafkaesque Koffka","3.2.6","mult","0","a","NA","NA","a","a","13830","NA","NA","67966","13830","2","1286","legacy","small","1024","2","48000","-16","experiment","2_7_mult_true.jpg","11","odd","legacy","188923","NA","135786","NA","NA","2601","NA","2618","121956","188923","191185","70585","118884","2603","mousetracking operator preview effect","0","0","0","no","true","no","1680"
"negative","undefined","1","undefined","undefined","white","no","legacy","legacy","legacy","0","relative","undefined","undefined","18","NA","0","0","0","0","0","0","0","34","34","0","15","0","no","03/31/19 18:48:06","A simple template for the mouse-tracking paradigm","yes","Experiment-TF.osexp","C:\Users\Kristen\Documents\opPreviewExperiment-master\procedure","no","mono","no","24","no","black","no","yes","1050","legacy","18","15","C:/Users/Kristen/Documents/opPreviewExperiment-master/procedure/subject-11.csv","legacy","Kafkaesque Koffka","3.2.6","add","0","a","NA","NA","a","a","13830","NA","NA","67966","13830","2","1535","legacy","large","1024","2","48000","-16","experiment","8_4_add_true.jpg","11","odd","legacy","191214","NA","135786","NA","NA","2601","NA","2618","121956","191214","193916","70585","118884","2603","mousetracking operator preview effect","0","0","0","no","true","no","1680"
"neutral","undefined","1","undefined","undefined","white","no","legacy","legacy","legacy","0","relative","undefined","undefined","19","NA","0","0","0","0","0","0","0","35","35","0","15","0","no","03/31/19 18:48:06","A simple template for the mouse-tracking paradigm","yes","Experiment-TF.osexp","C:\Users\Kristen\Documents\opPreviewExperiment-master\procedure","no","mono","no","24","no","black","no","yes","1050","legacy","19","15","C:/Users/Kristen/Documents/opPreviewExperiment-master/procedure/subject-11.csv","legacy","Kafkaesque Koffka","3.2.6","add","0","l","NA","NA","a","a","13830","NA","NA","67966","13830","2","1770","legacy","small","1024","2","48000","-16","experiment","8_2_add_FNI.jpg","11","odd","legacy","193946","NA","135786","NA","NA","2601","NA","2618","121956","193946","196690","70585","118884","2603","mousetracking operator preview effect","0","0","0","no","false","no","1680"
"negative","undefined","1","undefined","undefined","white","no","legacy","legacy","legacy","0","relative","undefined","undefined","20","NA","0","0","0","0","0","0","0","36","36","0","15","0","no","03/31/19 18:48:06","A simple template for the mouse-tracking paradigm","yes","Experiment-TF.osexp","C:\Users\Kristen\Documents\opPreviewExperiment-master\procedure","no","mono","no","24","no","black","no","yes","1050","legacy","20","15","C:/Users/Kristen/Documents/opPreviewExperiment-master/procedure/subject-11.csv","legacy","Kafkaesque Koffka","3.2.6","add","0","a","NA","NA","a","a","13830","NA","NA","67966","13830","2","1432","legacy","large","1024","2","48000","-16","experiment","9_7_add_true.jpg","11","odd","legacy","196711","NA","135786","NA","NA","2601","NA","2618","121956","196711","199295","70585","118884","2603","mousetracking operator preview effect","0","0","0","no","true","no","1680"
"negative","undefined","1","undefined","undefined","white","no","legacy","legacy","legacy","0","relative","undefined","undefined","21","NA","0","0","0","0","0","0","0","37","37","0","15","0","no","03/31/19 18:48:06","A simple template for the mouse-tracking paradigm","yes","Experiment-TF.osexp","C:\Users\Kristen\Documents\opPreviewExperiment-master\procedure","no","mono","no","24","no","black","no","yes","1050","legacy","21","15","C:/Users/Kristen/Documents/opPreviewExperiment-master/procedure/subject-11.csv","legacy","Kafkaesque Koffka","3.2.6","mult","0","a","NA","NA","a","a","13830","NA","NA","67966","13830","2","1334","legacy","small","1024","2","48000","-16","experiment","8_2_mult_true.jpg","11","odd","legacy","199319","NA","135786","NA","NA","2601","NA","2618","121956","199319","201803","70585","118884","2603","mousetracking operator preview effect","0","0","0","no","true","no","1680"
"neutral","undefined","1","undefined","undefined","white","no","legacy","legacy","legacy","0","relative","undefined","undefined","22","NA","0","0","0","0","0","0","0","38","38","0","15","0","no","03/31/19 18:48:06","A simple template for the mouse-tracking paradigm","yes","Experiment-TF.osexp","C:\Users\Kristen\Documents\opPreviewExperiment-master\procedure","no","mono","no","24","no","black","no","yes","1050","legacy","22","15","C:/Users/Kristen/Documents/opPreviewExperiment-master/procedure/subject-11.csv","legacy","Kafkaesque Koffka","3.2.6","mult","0","l","NA","NA","a","a","13830","NA","NA","67966","13830","2","1386","legacy","small","1024","2","48000","-16","experiment","3_6_mult_FI.jpg","11","odd","legacy","201833","NA","135786","NA","NA","2601","NA","2618","121956","201833","204196","70585","118884","2603","mousetracking operator preview effect","0","0","0","no","false","no","1680"
"negative","undefined","1","undefined","undefined","white","no","legacy","legacy","legacy","0","relative","undefined","undefined","23","NA","0","0","0","0","0","0","0","39","39","0","15","0","no","03/31/19 18:48:06","A simple template for the mouse-tracking paradigm","yes","Experiment-TF.osexp","C:\Users\Kristen\Documents\opPreviewExperiment-master\procedure","no","mono","no","24","no","black","no","yes","1050","legacy","23","15","C:/Users/Kristen/Documents/opPreviewExperiment-master/procedure/subject-11.csv","legacy","Kafkaesque Koffka","3.2.6","mult","0","l","NA","NA","a","a","13830","NA","NA","67966","13830","2","5017","legacy","large","1024","2","48000","-16","experiment","9_7_mult_FNI.jpg","11","odd","legacy","204215","NA","135786","NA","NA","2601","NA","2618","121956","204216","210389","70585","118884","2603","mousetracking operator preview effect","0","0","0","no","false","no","1680"
"neutral","undefined","1","undefined","undefined","white","no","legacy","legacy","legacy","0","relative","undefined","undefined","24","NA","0","0","0","0","0","0","0","40","40","0","15","0","no","03/31/19 18:48:06","A simple template for the mouse-tracking paradigm","yes","Experiment-TF.osexp","C:\Users\Kristen\Documents\opPreviewExperiment-master\procedure","no","mono","no","24","no","black","no","yes","1050","legacy","24","15","C:/Users/Kristen/Documents/opPreviewExperiment-master/procedure/subject-11.csv","legacy","Kafkaesque Koffka","3.2.6","add","0","l","NA","NA","a","a","13830","NA","NA","67966","13830","2","3805","legacy","large","1024","2","48000","-16","experiment","6_8_add_FNI.jpg","11","odd","legacy","210409","NA","135786","NA","NA","2601","NA","2618","121956","210409","215184","70585","118884","2603","mousetracking operator preview effect","0","0","0","no","false","no","1680"
"negative","undefined","1","undefined","undefined","white","no","legacy","legacy","legacy","0","relative","undefined","undefined","25","NA","0","0","0","0","0","0","0","41","41","0","15","0","no","03/31/19 18:48:06","A simple template for the mouse-tracking paradigm","yes","Experiment-TF.osexp","C:\Users\Kristen\Documents\opPreviewExperiment-master\procedure","no","mono","no","24","no","black","no","yes","1050","legacy","25","15","C:/Users/Kristen/Documents/opPreviewExperiment-master/procedure/subject-11.csv","legacy","Kafkaesque Koffka","3.2.6","add","0","l","NA","NA","a","a","13830","NA","NA","67966","13830","2","4302","legacy","large","1024","2","48000","-16","experiment","4_9_add_FNI.jpg","11","odd","legacy","215208","NA","135786","NA","NA","2601","NA","2618","121956","215209","220666","70585","118884","2603","mousetracking operator preview effect","0","0","0","no","false","no","1680"
"negative","undefined","1","undefined","undefined","white","no","legacy","legacy","legacy","0","relative","undefined","undefined","26","NA","0","0","0","0","0","0","0","42","42","0","15","0","no","03/31/19 18:48:06","A simple template for the mouse-tracking paradigm","yes","Experiment-TF.osexp","C:\Users\Kristen\Documents\opPreviewExperiment-master\procedure","no","mono","no","24","no","black","no","yes","1050","legacy","26","15","C:/Users/Kristen/Documents/opPreviewExperiment-master/procedure/subject-11.csv","legacy","Kafkaesque Koffka","3.2.6","mult","0","l","NA","NA","a","a","13830","NA","NA","67966","13830","2","1713","legacy","small","1024","2","48000","-16","experiment","8_2_mult_FI.jpg","11","odd","legacy","220697","NA","135786","NA","NA","2601","NA","2618","121956","220697","223571","70585","118884","2603","mousetracking operator preview effect","0","0","0","no","false","no","1680"
"negative","undefined","1","undefined","undefined","white","no","legacy","legacy","legacy","0","relative","undefined","undefined","27","NA","0","0","0","0","0","0","0","43","43","0","15","0","no","03/31/19 18:48:06","A simple template for the mouse-tracking paradigm","yes","Experiment-TF.osexp","C:\Users\Kristen\Documents\opPreviewExperiment-master\procedure","no","mono","no","24","no","black","no","yes","1050","legacy","27","15","C:/Users/Kristen/Documents/opPreviewExperiment-master/procedure/subject-11.csv","legacy","Kafkaesque Koffka","3.2.6","add","0","l","NA","NA","a","a","13830","NA","NA","67966","13830","2","1519","legacy","large","1024","2","48000","-16","experiment","8_4_add_FI.jpg","11","odd","legacy","223600","NA","135786","NA","NA","2601","NA","2618","121956","223600","226275","70585","118884","2603","mousetracking operator preview effect","0","0","0","no","false","no","1680"
"neutral","undefined","1","undefined","undefined","white","no","legacy","legacy","legacy","0","relative","undefined","undefined","28","NA","0","0","0","0","0","0","0","44","44","0","15","0","no","03/31/19 18:48:06","A simple template for the mouse-tracking paradigm","yes","Experiment-TF.osexp","C:\Users\Kristen\Documents\opPreviewExperiment-master\procedure","no","mono","no","24","no","black","no","yes","1050","legacy","28","15","C:/Users/Kristen/Documents/opPreviewExperiment-master/procedure/subject-11.csv","legacy","Kafkaesque Koffka","3.2.6","add","0","l","NA","NA","a","a","13830","NA","NA","67966","13830","2","1731","legacy","small","1024","2","48000","-16","experiment","3_6_add_FNI.jpg","11","odd","legacy","226305","NA","135786","NA","NA","2601","NA","2618","121956","226305","229039","70585","118884","2603","mousetracking operator preview effect","0","0","0","no","false","no","1680"
"negative","undefined","1","undefined","undefined","white","no","legacy","legacy","legacy","0","relative","undefined","undefined","29","NA","0","0","0","0","0","0","0","45","45","0","15","0","no","03/31/19 18:48:06","A simple template for the mouse-tracking paradigm","yes","Experiment-TF.osexp","C:\Users\Kristen\Documents\opPreviewExperiment-master\procedure","no","mono","no","24","no","black","no","yes","1050","legacy","29","15","C:/Users/Kristen/Documents/opPreviewExperiment-master/procedure/subject-11.csv","legacy","Kafkaesque Koffka","3.2.6","mult","0","a","NA","NA","a","a","13830","NA","NA","67966","13830","2","1146","legacy","small","1024","2","48000","-16","experiment","2_7_mult_true.jpg","11","odd","legacy","229059","NA","135786","NA","NA","2601","NA","2618","121956","229059","231355","70585","118884","2603","mousetracking operator preview effect","0","0","0","no","true","no","1680"
"negative","undefined","1","undefined","undefined","white","no","legacy","legacy","legacy","0","relative","undefined","undefined","30","NA","0","0","0","0","0","0","0","46","46","0","15","0","no","03/31/19 18:48:06","A simple template for the mouse-tracking paradigm","yes","Experiment-TF.osexp","C:\Users\Kristen\Documents\opPreviewExperiment-master\procedure","no","mono","no","24","no","black","no","yes","1050","legacy","30","15","C:/Users/Kristen/Documents/opPreviewExperiment-master/procedure/subject-11.csv","legacy","Kafkaesque Koffka","3.2.6","add","0","a","NA","NA","a","a","13830","NA","NA","67966","13830","2","1452","legacy","large","1024","2","48000","-16","experiment","8_4_add_true.jpg","11","odd","legacy","231378","NA","135786","NA","NA","2601","NA","2618","121956","231378","233980","70585","118884","2603","mousetracking operator preview effect","0","0","0","no","true","no","1680"
"neutral","undefined","1","undefined","undefined","white","no","legacy","legacy","legacy","0","relative","undefined","undefined","31","NA","0","0","0","0","0","0","0","47","47","0","15","0","no","03/31/19 18:48:06","A simple template for the mouse-tracking paradigm","yes","Experiment-TF.osexp","C:\Users\Kristen\Documents\opPreviewExperiment-master\procedure","no","mono","no","24","no","black","no","yes","1050","legacy","31","15","C:/Users/Kristen/Documents/opPreviewExperiment-master/procedure/subject-11.csv","legacy","Kafkaesque Koffka","3.2.6","mult","0","l","NA","NA","a","a","13830","NA","NA","67966","13830","2","1643","legacy","large","1024","2","48000","-16","experiment","6_8_mult_FI.jpg","11","odd","legacy","234001","NA","135786","NA","NA","2601","NA","2618","121956","234001","236637","70585","118884","2603","mousetracking operator preview effect","0","0","0","no","false","no","1680"
"neutral","undefined","1","undefined","undefined","white","no","legacy","legacy","legacy","0","relative","undefined","undefined","32","NA","0","0","0","0","0","0","0","48","48","0","15","0","no","03/31/19 18:48:06","A simple template for the mouse-tracking paradigm","yes","Experiment-TF.osexp","C:\Users\Kristen\Documents\opPreviewExperiment-master\procedure","no","mono","no","24","no","black","no","yes","1050","legacy","32","15","C:/Users/Kristen/Documents/opPreviewExperiment-master/procedure/subject-11.csv","legacy","Kafkaesque Koffka","3.2.6","mult","0","a","NA","NA","a","a","13830","NA","NA","67966","13830","2","1595","legacy","large","1024","2","48000","-16","experiment","6_8_mult_true.jpg","11","odd","legacy","236667","NA","135786","NA","NA","2601","NA","2618","121956","236667","239261","70585","118884","2603","mousetracking operator preview effect","0","0","0","no","true","no","1680"
"negative","undefined","1","undefined","undefined","white","no","legacy","legacy","legacy","0","relative","undefined","undefined","33","NA","0","0","0","0","0","0","0","49","49","0","15","0","no","03/31/19 18:48:06","A simple template for the mouse-tracking paradigm","yes","Experiment-TF.osexp","C:\Users\Kristen\Documents\opPreviewExperiment-master\procedure","no","mono","no","24","no","black","no","yes","1050","legacy","33","15","C:/Users/Kristen/Documents/opPreviewExperiment-master/procedure/subject-11.csv","legacy","Kafkaesque Koffka","3.2.6","mult","0","l","NA","NA","a","a","13830","NA","NA","67966","13830","2","2034","legacy","large","1024","2","48000","-16","experiment","8_4_mult_FI.jpg","11","odd","legacy","239283","NA","135786","NA","NA","2601","NA","2618","121956","239283","242488","70585","118884","2603","mousetracking operator preview effect","0","0","0","no","false","no","1680"
"negative","undefined","1","undefined","undefined","white","no","legacy","legacy","legacy","0","relative","undefined","undefined","34","NA","0","0","0","0","0","0","0","50","50","0","15","0","no","03/31/19 18:48:06","A simple template for the mouse-tracking paradigm","yes","Experiment-TF.osexp","C:\Users\Kristen\Documents\opPreviewExperiment-master\procedure","no","mono","no","24","no","black","no","yes","1050","legacy","34","15","C:/Users/Kristen/Documents/opPreviewExperiment-master/procedure/subject-11.csv","legacy","Kafkaesque Koffka","3.2.6","mult","0","l","NA","NA","a","a","13830","NA","NA","67966","13830","2","1584","legacy","small","1024","2","48000","-16","experiment","3_6_mult_FNI.jpg","11","odd","legacy","242508","NA","135786","NA","NA","2601","NA","2618","121956","242509","245254","70585","118884","2603","mousetracking operator preview effect","0","0","0","no","false","no","1680"
"neutral","undefined","1","undefined","undefined","white","no","legacy","legacy","legacy","0","relative","undefined","undefined","35","NA","0","0","0","0","0","0","0","51","51","0","15","0","no","03/31/19 18:48:06","A simple template for the mouse-tracking paradigm","yes","Experiment-TF.osexp","C:\Users\Kristen\Documents\opPreviewExperiment-master\procedure","no","mono","no","24","no","black","no","yes","1050","legacy","35","15","C:/Users/Kristen/Documents/opPreviewExperiment-master/procedure/subject-11.csv","legacy","Kafkaesque Koffka","3.2.6","add","0","l","NA","NA","a","a","13830","NA","NA","67966","13830","2","1493","legacy","large","1024","2","48000","-16","experiment","9_7_add_FI.jpg","11","odd","legacy","245282","NA","135786","NA","NA","2601","NA","2618","121956","245282","247769","70585","118884","2603","mousetracking operator preview effect","0","0","0","no","false","no","1680"
"neutral","undefined","1","undefined","undefined","white","no","legacy","legacy","legacy","0","relative","undefined","undefined","36","NA","0","0","0","0","0","0","0","52","52","0","15","0","no","03/31/19 18:48:06","A simple template for the mouse-tracking paradigm","yes","Experiment-TF.osexp","C:\Users\Kristen\Documents\opPreviewExperiment-master\procedure","no","mono","no","24","no","black","no","yes","1050","legacy","36","15","C:/Users/Kristen/Documents/opPreviewExperiment-master/procedure/subject-11.csv","legacy","Kafkaesque Koffka","3.2.6","add","0","l","NA","NA","a","a","13830","NA","NA","67966","13830","2","1506","legacy","large","1024","2","48000","-16","experiment","6_8_add_FI.jpg","11","odd","legacy","247790","NA","135786","NA","NA","2601","NA","2618","121956","247790","250275","70585","118884","2603","mousetracking operator preview effect","0","0","0","no","false","no","1680"
"neutral","undefined","1","undefined","undefined","white","no","legacy","legacy","legacy","0","relative","undefined","undefined","37","NA","0","0","0","0","0","0","0","53","53","0","15","0","no","03/31/19 18:48:06","A simple template for the mouse-tracking paradigm","yes","Experiment-TF.osexp","C:\Users\Kristen\Documents\opPreviewExperiment-master\procedure","no","mono","no","24","no","black","no","yes","1050","legacy","37","15","C:/Users/Kristen/Documents/opPreviewExperiment-master/procedure/subject-11.csv","legacy","Kafkaesque Koffka","3.2.6","mult","0","a","NA","NA","a","a","13830","NA","NA","67966","13830","2","1306","legacy","small","1024","2","48000","-16","experiment","8_2_mult_true.jpg","11","odd","legacy","250296","NA","135786","NA","NA","2601","NA","2618","121956","250296","252578","70585","118884","2603","mousetracking operator preview effect","0","0","0","no","true","no","1680"
"neutral","undefined","0","undefined","undefined","white","no","legacy","legacy","legacy","0","relative","undefined","undefined","38","NA","0","0","0","0","0","0","0","54","54","0","15","0","no","03/31/19 18:48:06","A simple template for the mouse-tracking paradigm","yes","Experiment-TF.osexp","C:\Users\Kristen\Documents\opPreviewExperiment-master\procedure","no","mono","no","24","no","black","no","yes","1050","legacy","38","15","C:/Users/Kristen/Documents/opPreviewExperiment-master/procedure/subject-11.csv","legacy","Kafkaesque Koffka","3.2.6","add","0","a","NA","NA","a","a","13830","NA","NA","67966","13830","2","1061","legacy","small","1024","2","48000","-16","experiment","2_7_add_FI.jpg","11","odd","legacy","252602","NA","135786","NA","NA","2601","NA","2618","121956","252602","255667","70585","118884","2603","mousetracking operator preview effect","0","0","0","no","false","no","1680"
"neutral","undefined","1","undefined","undefined","white","no","legacy","legacy","legacy","0","relative","undefined","undefined","39","NA","0","0","0","0","0","0","0","55","55","0","15","0","no","03/31/19 18:48:06","A simple template for the mouse-tracking paradigm","yes","Experiment-TF.osexp","C:\Users\Kristen\Documents\opPreviewExperiment-master\procedure","no","mono","no","24","no","black","no","yes","1050","legacy","39","15","C:/Users/Kristen/Documents/opPreviewExperiment-master/procedure/subject-11.csv","legacy","Kafkaesque Koffka","3.2.6","add","0","l","NA","NA","a","a","13830","NA","NA","67966","13830","2","3094","legacy","large","1024","2","48000","-16","experiment","4_9_add_FI.jpg","11","odd","legacy","255706","NA","135786","NA","NA","2601","NA","2618","121956","255707","259785","70585","118884","2603","mousetracking operator preview effect","0","0","0","no","false","no","1680"
"negative","undefined","1","undefined","undefined","white","no","legacy","legacy","legacy","0","relative","undefined","undefined","40","NA","0","0","0","0","0","0","0","56","56","0","15","0","no","03/31/19 18:48:06","A simple template for the mouse-tracking paradigm","yes","Experiment-TF.osexp","C:\Users\Kristen\Documents\opPreviewExperiment-master\procedure","no","mono","no","24","no","black","no","yes","1050","legacy","40","15","C:/Users/Kristen/Documents/opPreviewExperiment-master/procedure/subject-11.csv","legacy","Kafkaesque Koffka","3.2.6","mult","0","l","NA","NA","a","a","13830","NA","NA","67966","13830","2","1226","legacy","small","1024","2","48000","-16","experiment","2_7_mult_FNI.jpg","11","odd","legacy","259806","NA","135786","NA","NA","2601","NA","2618","121956","259807","262196","70585","118884","2603","mousetracking operator preview effect","0","0","0","no","false","no","1680"
"negative","undefined","1","undefined","undefined","white","no","legacy","legacy","legacy","0","relative","undefined","undefined","41","NA","0","0","0","0","0","0","0","57","57","0","15","0","no","03/31/19 18:48:06","A simple template for the mouse-tracking paradigm","yes","Experiment-TF.osexp","C:\Users\Kristen\Documents\opPreviewExperiment-master\procedure","no","mono","no","24","no","black","no","yes","1050","legacy","41","15","C:/Users/Kristen/Documents/opPreviewExperiment-master/procedure/subject-11.csv","legacy","Kafkaesque Koffka","3.2.6","add","0","a","NA","NA","a","a","13830","NA","NA","67966","13830","2","1904","legacy","small","1024","2","48000","-16","experiment","5_3_add_true.jpg","11","odd","legacy","262211","NA","135786","NA","NA","2601","NA","2618","121956","262211","265265","70585","118884","2603","mousetracking operator preview effect","0","0","0","no","true","no","1680"
"negative","undefined","1","undefined","undefined","white","no","legacy","legacy","legacy","0","relative","undefined","undefined","42","NA","0","0","0","0","0","0","0","58","58","0","15","0","no","03/31/19 18:48:06","A simple template for the mouse-tracking paradigm","yes","Experiment-TF.osexp","C:\Users\Kristen\Documents\opPreviewExperiment-master\procedure","no","mono","no","24","no","black","no","yes","1050","legacy","42","15","C:/Users/Kristen/Documents/opPreviewExperiment-master/procedure/subject-11.csv","legacy","Kafkaesque Koffka","3.2.6","add","0","a","NA","NA","a","a","13830","NA","NA","67966","13830","2","3499","legacy","large","1024","2","48000","-16","experiment","6_8_add_true.jpg","11","odd","legacy","265295","NA","135786","NA","NA","2601","NA","2618","121956","265295","269962","70585","118884","2603","mousetracking operator preview effect","0","0","0","no","true","no","1680"
"negative","undefined","1","undefined","undefined","white","no","legacy","legacy","legacy","0","relative","undefined","undefined","43","NA","0","0","0","0","0","0","0","59","59","0","15","0","no","03/31/19 18:48:06","A simple template for the mouse-tracking paradigm","yes","Experiment-TF.osexp","C:\Users\Kristen\Documents\opPreviewExperiment-master\procedure","no","mono","no","24","no","black","no","yes","1050","legacy","43","15","C:/Users/Kristen/Documents/opPreviewExperiment-master/procedure/subject-11.csv","legacy","Kafkaesque Koffka","3.2.6","add","0","a","NA","NA","a","a","13830","NA","NA","67966","13830","2","1100","legacy","small","1024","2","48000","-16","experiment","8_2_add_true.jpg","11","odd","legacy","269991","NA","135786","NA","NA","2601","NA","2618","121956","269991","272233","70585","118884","2603","mousetracking operator preview effect","0","0","0","no","true","no","1680"
"neutral","undefined","1","undefined","undefined","white","no","legacy","legacy","legacy","0","relative","undefined","undefined","44","NA","0","0","0","0","0","0","0","60","60","0","15","0","no","03/31/19 18:48:06","A simple template for the mouse-tracking paradigm","yes","Experiment-TF.osexp","C:\Users\Kristen\Documents\opPreviewExperiment-master\procedure","no","mono","no","24","no","black","no","yes","1050","legacy","44","15","C:/Users/Kristen/Documents/opPreviewExperiment-master/procedure/subject-11.csv","legacy","Kafkaesque Koffka","3.2.6","add","0","a","NA","NA","a","a","13830","NA","NA","67966","13830","2","1409","legacy","large","1024","2","48000","-16","experiment","8_4_add_true.jpg","11","odd","legacy","272262","NA","135786","NA","NA","2601","NA","2618","121956","272262","274647","70585","118884","2603","mousetracking operator preview effect","0","0","0","no","true","no","1680"
"neutral","undefined","1","undefined","undefined","white","no","legacy","legacy","legacy","0","relative","undefined","undefined","45","NA","0","0","0","0","0","0","0","61","61","0","15","0","no","03/31/19 18:48:06","A simple template for the mouse-tracking paradigm","yes","Experiment-TF.osexp","C:\Users\Kristen\Documents\opPreviewExperiment-master\procedure","no","mono","no","24","no","black","no","yes","1050","legacy","45","15","C:/Users/Kristen/Documents/opPreviewExperiment-master/procedure/subject-11.csv","legacy","Kafkaesque Koffka","3.2.6","add","0","l","NA","NA","a","a","13830","NA","NA","67966","13830","2","4446","legacy","large","1024","2","48000","-16","experiment","4_9_add_FNI.jpg","11","odd","legacy","274675","NA","135786","NA","NA","2601","NA","2618","121956","274676","280097","70585","118884","2603","mousetracking operator preview effect","0","0","0","no","false","no","1680"
"negative","undefined","1","undefined","undefined","white","no","legacy","legacy","legacy","0","relative","undefined","undefined","46","NA","0","0","0","0","0","0","0","62","62","0","15","0","no","03/31/19 18:48:06","A simple template for the mouse-tracking paradigm","yes","Experiment-TF.osexp","C:\Users\Kristen\Documents\opPreviewExperiment-master\procedure","no","mono","no","24","no","black","no","yes","1050","legacy","46","15","C:/Users/Kristen/Documents/opPreviewExperiment-master/procedure/subject-11.csv","legacy","Kafkaesque Koffka","3.2.6","mult","0","l","NA","NA","a","a","13830","NA","NA","67966","13830","2","1021","legacy","small","1024","2","48000","-16","experiment","5_3_mult_FNI.jpg","11","odd","legacy","280119","NA","135786","NA","NA","2601","NA","2618","121956","280119","282284","70585","118884","2603","mousetracking operator preview effect","0","0","0","no","false","no","1680"
"negative","undefined","1","undefined","undefined","white","no","legacy","legacy","legacy","0","relative","undefined","undefined","47","NA","0","0","0","0","0","0","0","63","63","0","15","0","no","03/31/19 18:48:06","A simple template for the mouse-tracking paradigm","yes","Experiment-TF.osexp","C:\Users\Kristen\Documents\opPreviewExperiment-master\procedure","no","mono","no","24","no","black","no","yes","1050","legacy","47","15","C:/Users/Kristen/Documents/opPreviewExperiment-master/procedure/subject-11.csv","legacy","Kafkaesque Koffka","3.2.6","mult","0","a","NA","NA","a","a","13830","NA","NA","67966","13830","2","1026","legacy","small","1024","2","48000","-16","experiment","3_6_mult_true.jpg","11","odd","legacy","282310","NA","135786","NA","NA","2601","NA","2618","121956","282311","284502","70585","118884","2603","mousetracking operator preview effect","0","0","0","no","true","no","1680"
"neutral","undefined","1","undefined","undefined","white","no","legacy","legacy","legacy","0","relative","undefined","undefined","48","NA","0","0","0","0","0","0","0","64","64","0","15","0","no","03/31/19 18:48:06","A simple template for the mouse-tracking paradigm","yes","Experiment-TF.osexp","C:\Users\Kristen\Documents\opPreviewExperiment-master\procedure","no","mono","no","24","no","black","no","yes","1050","legacy","48","15","C:/Users/Kristen/Documents/opPreviewExperiment-master/procedure/subject-11.csv","legacy","Kafkaesque Koffka","3.2.6","mult","0","a","NA","NA","a","a","13830","NA","NA","67966","13830","2","1523","legacy","small","1024","2","48000","-16","experiment","3_6_mult_true.jpg","11","odd","legacy","284528","NA","135786","NA","NA","2601","NA","2618","121956","284528","287012","70585","118884","2603","mousetracking operator preview effect","0","0","0","no","true","no","1680"
"neutral","undefined","0","undefined","undefined","white","no","legacy","legacy","legacy","0","relative","undefined","undefined","49","NA","0","0","0","0","0","0","0","65","65","0","15","0","no","03/31/19 18:48:06","A simple template for the mouse-tracking paradigm","yes","Experiment-TF.osexp","C:\Users\Kristen\Documents\opPreviewExperiment-master\procedure","no","mono","no","24","no","black","no","yes","1050","legacy","49","15","C:/Users/Kristen/Documents/opPreviewExperiment-master/procedure/subject-11.csv","legacy","Kafkaesque Koffka","3.2.6","add","0","l","NA","NA","a","a","13830","NA","NA","67966","13830","2","1512","legacy","small","1024","2","48000","-16","experiment","2_7_add_true.jpg","11","odd","legacy","287040","NA","135786","NA","NA","2601","NA","2618","121956","287040","290544","70585","118884","2603","mousetracking operator preview effect","0","0","0","no","true","no","1680"
"negative","undefined","1","undefined","undefined","white","no","legacy","legacy","legacy","0","relative","undefined","undefined","50","NA","0","0","0","0","0","0","0","66","66","0","15","0","no","03/31/19 18:48:06","A simple template for the mouse-tracking paradigm","yes","Experiment-TF.osexp","C:\Users\Kristen\Documents\opPreviewExperiment-master\procedure","no","mono","no","24","no","black","no","yes","1050","legacy","50","15","C:/Users/Kristen/Documents/opPreviewExperiment-master/procedure/subject-11.csv","legacy","Kafkaesque Koffka","3.2.6","add","0","a","NA","NA","a","a","13830","NA","NA","67966","13830","2","920","legacy","small","1024","2","48000","-16","experiment","2_7_add_true.jpg","11","odd","legacy","290577","NA","135786","NA","NA","2601","NA","2618","121956","290577","292656","70585","118884","2603","mousetracking operator preview effect","0","0","0","no","true","no","1680"
"negative","undefined","1","undefined","undefined","white","no","legacy","legacy","legacy","0","relative","undefined","undefined","51","NA","0","0","0","0","0","0","0","67","67","0","15","0","no","03/31/19 18:48:06","A simple template for the mouse-tracking paradigm","yes","Experiment-TF.osexp","C:\Users\Kristen\Documents\opPreviewExperiment-master\procedure","no","mono","no","24","no","black","no","yes","1050","legacy","51","15","C:/Users/Kristen/Documents/opPreviewExperiment-master/procedure/subject-11.csv","legacy","Kafkaesque Koffka","3.2.6","add","0","a","NA","NA","a","a","13830","NA","NA","67966","13830","2","881","legacy","small","1024","2","48000","-16","experiment","8_2_add_true.jpg","11","odd","legacy","292676","NA","135786","NA","NA","2601","NA","2618","121956","292676","294698","70585","118884","2603","mousetracking operator preview effect","0","0","0","no","true","no","1680"
"neutral","undefined","1","undefined","undefined","white","no","legacy","legacy","legacy","0","relative","undefined","undefined","52","NA","0","0","0","0","0","0","0","68","68","0","15","0","no","03/31/19 18:48:06","A simple template for the mouse-tracking paradigm","yes","Experiment-TF.osexp","C:\Users\Kristen\Documents\opPreviewExperiment-master\procedure","no","mono","no","24","no","black","no","yes","1050","legacy","52","15","C:/Users/Kristen/Documents/opPreviewExperiment-master/procedure/subject-11.csv","legacy","Kafkaesque Koffka","3.2.6","mult","0","l","NA","NA","a","a","13830","NA","NA","67966","13830","2","2558","legacy","large","1024","2","48000","-16","experiment","8_4_mult_FNI.jpg","11","odd","legacy","294728","NA","135786","NA","NA","2601","NA","2618","121956","294728","298290","70585","118884","2603","mousetracking operator preview effect","0","0","0","no","false","no","1680"
"neutral","undefined","1","undefined","undefined","white","no","legacy","legacy","legacy","0","relative","undefined","undefined","53","NA","0","0","0","0","0","0","0","69","69","0","15","0","no","03/31/19 18:48:06","A simple template for the mouse-tracking paradigm","yes","Experiment-TF.osexp","C:\Users\Kristen\Documents\opPreviewExperiment-master\procedure","no","mono","no","24","no","black","no","yes","1050","legacy","53","15","C:/Users/Kristen/Documents/opPreviewExperiment-master/procedure/subject-11.csv","legacy","Kafkaesque Koffka","3.2.6","mult","0","l","NA","NA","a","a","13830","NA","NA","67966","13830","2","2618","legacy","small","1024","2","48000","-16","experiment","5_3_mult_FI.jpg","11","odd","legacy","298317","NA","135786","NA","NA","2601","NA","2618","121956","298317","301932","70585","118884","2603","mousetracking operator preview effect","0","0","0","no","false","no","1680"
"negative","undefined","1","undefined","undefined","white","no","legacy","legacy","legacy","0","relative","undefined","undefined","54","NA","0","0","0","0","0","0","0","70","70","0","15","0","no","03/31/19 18:48:06","A simple template for the mouse-tracking paradigm","yes","Experiment-TF.osexp","C:\Users\Kristen\Documents\opPreviewExperiment-master\procedure","no","mono","no","24","no","black","no","yes","1050","legacy","54","15","C:/Users/Kristen/Documents/opPreviewExperiment-master/procedure/subject-11.csv","legacy","Kafkaesque Koffka","3.2.6","add","0","a","NA","NA","a","a","13830","NA","NA","67966","13830","2","2856","legacy","large","1024","2","48000","-16","experiment","4_9_add_true.jpg","11","odd","legacy","301962","NA","135786","NA","NA","2601","NA","2618","121956","301962","305957","70585","118884","2603","mousetracking operator preview effect","0","0","0","no","true","no","1680"
"neutral","undefined","1","undefined","undefined","white","no","legacy","legacy","legacy","0","relative","undefined","undefined","55","NA","0","0","0","0","0","0","0","71","71","0","15","0","no","03/31/19 18:48:06","A simple template for the mouse-tracking paradigm","yes","Experiment-TF.osexp","C:\Users\Kristen\Documents\opPreviewExperiment-master\procedure","no","mono","no","24","no","black","no","yes","1050","legacy","55","15","C:/Users/Kristen/Documents/opPreviewExperiment-master/procedure/subject-11.csv","legacy","Kafkaesque Koffka","3.2.6","add","0","a","NA","NA","a","a","13830","NA","NA","67966","13830","2","1295","legacy","small","1024","2","48000","-16","experiment","5_3_add_true.jpg","11","odd","legacy","305985","NA","135786","NA","NA","2601","NA","2618","121956","305985","308257","70585","118884","2603","mousetracking operator preview effect","0","0","0","no","true","no","1680"
"neutral","undefined","1","undefined","undefined","white","no","legacy","legacy","legacy","0","relative","undefined","undefined","56","NA","0","0","0","0","0","0","0","72","72","0","15","0","no","03/31/19 18:48:06","A simple template for the mouse-tracking paradigm","yes","Experiment-TF.osexp","C:\Users\Kristen\Documents\opPreviewExperiment-master\procedure","no","mono","no","24","no","black","no","yes","1050","legacy","56","15","C:/Users/Kristen/Documents/opPreviewExperiment-master/procedure/subject-11.csv","legacy","Kafkaesque Koffka","3.2.6","add","0","l","NA","NA","a","a","13830","NA","NA","67966","13830","2","2083","legacy","large","1024","2","48000","-16","experiment","9_7_add_FNI.jpg","11","odd","legacy","308289","NA","135786","NA","NA","2601","NA","2618","121956","308289","311368","70585","118884","2603","mousetracking operator preview effect","0","0","0","no","false","no","1680"
"neutral","undefined","1","undefined","undefined","white","no","legacy","legacy","legacy","0","relative","undefined","undefined","57","NA","0","0","0","0","0","0","0","73","73","0","15","0","no","03/31/19 18:48:06","A simple template for the mouse-tracking paradigm","yes","Experiment-TF.osexp","C:\Users\Kristen\Documents\opPreviewExperiment-master\procedure","no","mono","no","24","no","black","no","yes","1050","legacy","57","15","C:/Users/Kristen/Documents/opPreviewExperiment-master/procedure/subject-11.csv","legacy","Kafkaesque Koffka","3.2.6","add","0","a","NA","NA","a","a","13830","NA","NA","67966","13830","2","1862","legacy","large","1024","2","48000","-16","experiment","4_9_add_true.jpg","11","odd","legacy","311396","NA","135786","NA","NA","2601","NA","2618","121956","311396","314236","70585","118884","2603","mousetracking operator preview effect","0","0","0","no","true","no","1680"
"negative","undefined","1","undefined","undefined","white","no","legacy","legacy","legacy","0","relative","undefined","undefined","58","NA","0","0","0","0","0","0","0","74","74","0","15","0","no","03/31/19 18:48:06","A simple template for the mouse-tracking paradigm","yes","Experiment-TF.osexp","C:\Users\Kristen\Documents\opPreviewExperiment-master\procedure","no","mono","no","24","no","black","no","yes","1050","legacy","58","15","C:/Users/Kristen/Documents/opPreviewExperiment-master/procedure/subject-11.csv","legacy","Kafkaesque Koffka","3.2.6","add","0","l","NA","NA","a","a","13830","NA","NA","67966","13830","2","1820","legacy","large","1024","2","48000","-16","experiment","8_4_add_FNI.jpg","11","odd","legacy","314258","NA","135786","NA","NA","2601","NA","2618","121956","314258","317242","70585","118884","2603","mousetracking operator preview effect","0","0","0","no","false","no","1680"
"negative","undefined","1","undefined","undefined","white","no","legacy","legacy","legacy","0","relative","undefined","undefined","59","NA","0","0","0","0","0","0","0","75","75","0","15","0","no","03/31/19 18:48:06","A simple template for the mouse-tracking paradigm","yes","Experiment-TF.osexp","C:\Users\Kristen\Documents\opPreviewExperiment-master\procedure","no","mono","no","24","no","black","no","yes","1050","legacy","59","15","C:/Users/Kristen/Documents/opPreviewExperiment-master/procedure/subject-11.csv","legacy","Kafkaesque Koffka","3.2.6","add","0","a","NA","NA","a","a","13830","NA","NA","67966","13830","2","3357","legacy","large","1024","2","48000","-16","experiment","6_8_add_true.jpg","11","odd","legacy","317283","NA","135786","NA","NA","2601","NA","2618","121956","317283","321779","70585","118884","2603","mousetracking operator preview effect","0","0","0","no","true","no","1680"
"negative","undefined","1","undefined","undefined","white","no","legacy","legacy","legacy","0","relative","undefined","undefined","60","NA","0","0","0","0","0","0","0","76","76","0","15","0","no","03/31/19 18:48:06","A simple template for the mouse-tracking paradigm","yes","Experiment-TF.osexp","C:\Users\Kristen\Documents\opPreviewExperiment-master\procedure","no","mono","no","24","no","black","no","yes","1050","legacy","60","15","C:/Users/Kristen/Documents/opPreviewExperiment-master/procedure/subject-11.csv","legacy","Kafkaesque Koffka","3.2.6","add","0","a","NA","NA","a","a","13830","NA","NA","67966","13830","2","947","legacy","small","1024","2","48000","-16","experiment","5_3_add_true.jpg","11","odd","legacy","321794","NA","135786","NA","NA","2601","NA","2618","121956","321794","323884","70585","118884","2603","mousetracking operator preview effect","0","0","0","no","true","no","1680"
"neutral","undefined","1","undefined","undefined","white","no","legacy","legacy","legacy","0","relative","undefined","undefined","61","NA","0","0","0","0","0","0","0","77","77","0","15","0","no","03/31/19 18:48:06","A simple template for the mouse-tracking paradigm","yes","Experiment-TF.osexp","C:\Users\Kristen\Documents\opPreviewExperiment-master\procedure","no","mono","no","24","no","black","no","yes","1050","legacy","61","15","C:/Users/Kristen/Documents/opPreviewExperiment-master/procedure/subject-11.csv","legacy","Kafkaesque Koffka","3.2.6","add","0","l","NA","NA","a","a","13830","NA","NA","67966","13830","2","1668","legacy","large","1024","2","48000","-16","experiment","8_4_add_FNI.jpg","11","odd","legacy","323914","NA","135786","NA","NA","2601","NA","2618","121956","323914","326560","70585","118884","2603","mousetracking operator preview effect","0","0","0","no","false","no","1680"
"negative","undefined","1","undefined","undefined","white","no","legacy","legacy","legacy","0","relative","undefined","undefined","62","NA","0","0","0","0","0","0","0","78","78","0","15","0","no","03/31/19 18:48:06","A simple template for the mouse-tracking paradigm","yes","Experiment-TF.osexp","C:\Users\Kristen\Documents\opPreviewExperiment-master\procedure","no","mono","no","24","no","black","no","yes","1050","legacy","62","15","C:/Users/Kristen/Documents/opPreviewExperiment-master/procedure/subject-11.csv","legacy","Kafkaesque Koffka","3.2.6","mult","0","a","NA","NA","a","a","13830","NA","NA","67966","13830","2","1214","legacy","small","1024","2","48000","-16","experiment","3_6_mult_true.jpg","11","odd","legacy","326581","NA","135786","NA","NA","2601","NA","2618","121956","326581","328940","70585","118884","2603","mousetracking operator preview effect","0","0","0","no","true","no","1680"
"neutral","undefined","1","undefined","undefined","white","no","legacy","legacy","legacy","0","relative","undefined","undefined","63","NA","0","0","0","0","0","0","0","79","79","0","15","0","no","03/31/19 18:48:06","A simple template for the mouse-tracking paradigm","yes","Experiment-TF.osexp","C:\Users\Kristen\Documents\opPreviewExperiment-master\procedure","no","mono","no","24","no","black","no","yes","1050","legacy","63","15","C:/Users/Kristen/Documents/opPreviewExperiment-master/procedure/subject-11.csv","legacy","Kafkaesque Koffka","3.2.6","add","0","a","NA","NA","a","a","13830","NA","NA","67966","13830","2","1238","legacy","large","1024","2","48000","-16","experiment","9_7_add_true.jpg","11","odd","legacy","328966","NA","135786","NA","NA","2601","NA","2618","121956","328966","331182","70585","118884","2603","mousetracking operator preview effect","0","0","0","no","true","no","1680"
"negative","undefined","1","undefined","undefined","white","no","legacy","legacy","legacy","0","relative","undefined","undefined","64","NA","0","0","0","0","0","0","0","80","80","0","15","0","no","03/31/19 18:48:06","A simple template for the mouse-tracking paradigm","yes","Experiment-TF.osexp","C:\Users\Kristen\Documents\opPreviewExperiment-master\procedure","no","mono","no","24","no","black","no","yes","1050","legacy","64","15","C:/Users/Kristen/Documents/opPreviewExperiment-master/procedure/subject-11.csv","legacy","Kafkaesque Koffka","3.2.6","mult","0","l","NA","NA","a","a","13830","NA","NA","67966","13830","2","1328","legacy","large","1024","2","48000","-16","experiment","9_7_mult_FI.jpg","11","odd","legacy","331211","NA","135786","NA","NA","2601","NA","2618","121956","331211","333706","70585","118884","2603","mousetracking operator preview effect","0","0","0","no","false","no","1680"
"neutral","undefined","1","undefined","undefined","white","no","legacy","legacy","legacy","0","relative","undefined","undefined","65","NA","0","0","0","0","0","0","0","81","81","0","15","0","no","03/31/19 18:48:06","A simple template for the mouse-tracking paradigm","yes","Experiment-TF.osexp","C:\Users\Kristen\Documents\opPreviewExperiment-master\procedure","no","mono","no","24","no","black","no","yes","1050","legacy","65","15","C:/Users/Kristen/Documents/opPreviewExperiment-master/procedure/subject-11.csv","legacy","Kafkaesque Koffka","3.2.6","mult","0","a","NA","NA","a","a","13830","NA","NA","67966","13830","2","2379","legacy","large","1024","2","48000","-16","experiment","4_9_mult_true.jpg","11","odd","legacy","333727","NA","135786","NA","NA","2601","NA","2618","121956","333727","337099","70585","118884","2603","mousetracking operator preview effect","0","0","0","no","true","no","1680"
"neutral","undefined","1","undefined","undefined","white","no","legacy","legacy","legacy","0","relative","undefined","undefined","66","NA","0","0","0","0","0","0","0","82","82","0","15","0","no","03/31/19 18:48:06","A simple template for the mouse-tracking paradigm","yes","Experiment-TF.osexp","C:\Users\Kristen\Documents\opPreviewExperiment-master\procedure","no","mono","no","24","no","black","no","yes","1050","legacy","66","15","C:/Users/Kristen/Documents/opPreviewExperiment-master/procedure/subject-11.csv","legacy","Kafkaesque Koffka","3.2.6","add","0","l","NA","NA","a","a","13830","NA","NA","67966","13830","2","1417","legacy","small","1024","2","48000","-16","experiment","5_3_add_FNI.jpg","11","odd","legacy","337129","NA","135786","NA","NA","2601","NA","2618","121956","337129","339519","70585","118884","2603","mousetracking operator preview effect","0","0","0","no","false","no","1680"
"negative","undefined","1","undefined","undefined","white","no","legacy","legacy","legacy","0","relative","undefined","undefined","67","NA","0","0","0","0","0","0","0","83","83","0","15","0","no","03/31/19 18:48:06","A simple template for the mouse-tracking paradigm","yes","Experiment-TF.osexp","C:\Users\Kristen\Documents\opPreviewExperiment-master\procedure","no","mono","no","24","no","black","no","yes","1050","legacy","67","15","C:/Users/Kristen/Documents/opPreviewExperiment-master/procedure/subject-11.csv","legacy","Kafkaesque Koffka","3.2.6","mult","0","a","NA","NA","a","a","13830","NA","NA","67966","13830","2","1539","legacy","large","1024","2","48000","-16","experiment","4_9_mult_true.jpg","11","odd","legacy","339539","NA","135786","NA","NA","2601","NA","2618","121956","339539","342224","70585","118884","2603","mousetracking operator preview effect","0","0","0","no","true","no","1680"
"negative","undefined","1","undefined","undefined","white","no","legacy","legacy","legacy","0","relative","undefined","undefined","68","NA","0","0","0","0","0","0","0","84","84","0","15","0","no","03/31/19 18:48:06","A simple template for the mouse-tracking paradigm","yes","Experiment-TF.osexp","C:\Users\Kristen\Documents\opPreviewExperiment-master\procedure","no","mono","no","24","no","black","no","yes","1050","legacy","68","15","C:/Users/Kristen/Documents/opPreviewExperiment-master/procedure/subject-11.csv","legacy","Kafkaesque Koffka","3.2.6","mult","0","a","NA","NA","a","a","13830","NA","NA","67966","13830","2","1448","legacy","large","1024","2","48000","-16","experiment","6_8_mult_true.jpg","11","odd","legacy","342239","NA","135786","NA","NA","2601","NA","2618","121956","342239","344833","70585","118884","2603","mousetracking operator preview effect","0","0","0","no","true","no","1680"
"neutral","undefined","1","undefined","undefined","white","no","legacy","legacy","legacy","0","relative","undefined","undefined","69","NA","0","0","0","0","0","0","0","85","85","0","15","0","no","03/31/19 18:48:06","A simple template for the mouse-tracking paradigm","yes","Experiment-TF.osexp","C:\Users\Kristen\Documents\opPreviewExperiment-master\procedure","no","mono","no","24","no","black","no","yes","1050","legacy","69","15","C:/Users/Kristen/Documents/opPreviewExperiment-master/procedure/subject-11.csv","legacy","Kafkaesque Koffka","3.2.6","mult","0","l","NA","NA","a","a","13830","NA","NA","67966","13830","2","1473","legacy","small","1024","2","48000","-16","experiment","2_7_mult_FI.jpg","11","odd","legacy","344859","NA","135786","NA","NA","2601","NA","2618","121956","344859","347331","70585","118884","2603","mousetracking operator preview effect","0","0","0","no","false","no","1680"
"negative","undefined","1","undefined","undefined","white","no","legacy","legacy","legacy","0","relative","undefined","undefined","70","NA","0","0","0","0","0","0","0","86","86","0","15","0","no","03/31/19 18:48:06","A simple template for the mouse-tracking paradigm","yes","Experiment-TF.osexp","C:\Users\Kristen\Documents\opPreviewExperiment-master\procedure","no","mono","no","24","no","black","no","yes","1050","legacy","70","15","C:/Users/Kristen/Documents/opPreviewExperiment-master/procedure/subject-11.csv","legacy","Kafkaesque Koffka","3.2.6","mult","0","l","NA","NA","a","a","13830","NA","NA","67966","13830","2","1488","legacy","large","1024","2","48000","-16","experiment","8_4_mult_FNI.jpg","11","odd","legacy","347359","NA","135786","NA","NA","2601","NA","2618","121956","347359","349998","70585","118884","2603","mousetracking operator preview effect","0","0","0","no","false","no","1680"
"neutral","undefined","1","undefined","undefined","white","no","legacy","legacy","legacy","0","relative","undefined","undefined","71","NA","0","0","0","0","0","0","0","87","87","0","15","0","no","03/31/19 18:48:06","A simple template for the mouse-tracking paradigm","yes","Experiment-TF.osexp","C:\Users\Kristen\Documents\opPreviewExperiment-master\procedure","no","mono","no","24","no","black","no","yes","1050","legacy","71","15","C:/Users/Kristen/Documents/opPreviewExperiment-master/procedure/subject-11.csv","legacy","Kafkaesque Koffka","3.2.6","mult","0","a","NA","NA","a","a","13830","NA","NA","67966","13830","2","1253","legacy","large","1024","2","48000","-16","experiment","6_8_mult_true.jpg","11","odd","legacy","350028","NA","135786","NA","NA","2601","NA","2618","121956","350028","352260","70585","118884","2603","mousetracking operator preview effect","0","0","0","no","true","no","1680"
"neutral","undefined","1","undefined","undefined","white","no","legacy","legacy","legacy","0","relative","undefined","undefined","72","NA","0","0","0","0","0","0","0","88","88","0","15","0","no","03/31/19 18:48:06","A simple template for the mouse-tracking paradigm","yes","Experiment-TF.osexp","C:\Users\Kristen\Documents\opPreviewExperiment-master\procedure","no","mono","no","24","no","black","no","yes","1050","legacy","72","15","C:/Users/Kristen/Documents/opPreviewExperiment-master/procedure/subject-11.csv","legacy","Kafkaesque Koffka","3.2.6","mult","0","l","NA","NA","a","a","13830","NA","NA","67966","13830","2","1224","legacy","small","1024","2","48000","-16","experiment","8_2_mult_FNI.jpg","11","odd","legacy","352281","NA","135786","NA","NA","2601","NA","2618","121956","352281","354478","70585","118884","2603","mousetracking operator preview effect","0","0","0","no","false","no","1680"
"neutral","undefined","1","undefined","undefined","white","no","legacy","legacy","legacy","0","relative","undefined","undefined","73","NA","0","0","0","0","0","0","0","89","89","0","15","0","no","03/31/19 18:48:06","A simple template for the mouse-tracking paradigm","yes","Experiment-TF.osexp","C:\Users\Kristen\Documents\opPreviewExperiment-master\procedure","no","mono","no","24","no","black","no","yes","1050","legacy","73","15","C:/Users/Kristen/Documents/opPreviewExperiment-master/procedure/subject-11.csv","legacy","Kafkaesque Koffka","3.2.6","add","0","l","NA","NA","a","a","13830","NA","NA","67966","13830","2","1872","legacy","small","1024","2","48000","-16","experiment","5_3_add_FI.jpg","11","odd","legacy","354509","NA","135786","NA","NA","2601","NA","2618","121956","354509","357368","70585","118884","2603","mousetracking operator preview effect","0","0","0","no","false","no","1680"
"negative","undefined","1","undefined","undefined","white","no","legacy","legacy","legacy","0","relative","undefined","undefined","74","NA","0","0","0","0","0","0","0","90","90","0","15","0","no","03/31/19 18:48:06","A simple template for the mouse-tracking paradigm","yes","Experiment-TF.osexp","C:\Users\Kristen\Documents\opPreviewExperiment-master\procedure","no","mono","no","24","no","black","no","yes","1050","legacy","74","15","C:/Users/Kristen/Documents/opPreviewExperiment-master/procedure/subject-11.csv","legacy","Kafkaesque Koffka","3.2.6","mult","0","l","NA","NA","a","a","13830","NA","NA","67966","13830","2","1350","legacy","large","1024","2","48000","-16","experiment","4_9_mult_FI.jpg","11","odd","legacy","357395","NA","135786","NA","NA","2601","NA","2618","121956","357395","359910","70585","118884","2603","mousetracking operator preview effect","0","0","0","no","false","no","1680"
"negative","undefined","1","undefined","undefined","white","no","legacy","legacy","legacy","0","relative","undefined","undefined","75","NA","0","0","0","0","0","0","0","91","91","0","15","0","no","03/31/19 18:48:06","A simple template for the mouse-tracking paradigm","yes","Experiment-TF.osexp","C:\Users\Kristen\Documents\opPreviewExperiment-master\procedure","no","mono","no","24","no","black","no","yes","1050","legacy","75","15","C:/Users/Kristen/Documents/opPreviewExperiment-master/procedure/subject-11.csv","legacy","Kafkaesque Koffka","3.2.6","mult","0","l","NA","NA","a","a","13830","NA","NA","67966","13830","2","1808","legacy","small","1024","2","48000","-16","experiment","5_3_mult_FI.jpg","11","odd","legacy","359931","NA","135786","NA","NA","2601","NA","2618","121956","359931","362889","70585","118884","2603","mousetracking operator preview effect","0","0","0","no","false","no","1680"
"negative","undefined","1","undefined","undefined","white","no","legacy","legacy","legacy","0","relative","undefined","undefined","76","NA","0","0","0","0","0","0","0","92","92","0","15","0","no","03/31/19 18:48:06","A simple template for the mouse-tracking paradigm","yes","Experiment-TF.osexp","C:\Users\Kristen\Documents\opPreviewExperiment-master\procedure","no","mono","no","24","no","black","no","yes","1050","legacy","76","15","C:/Users/Kristen/Documents/opPreviewExperiment-master/procedure/subject-11.csv","legacy","Kafkaesque Koffka","3.2.6","add","0","a","NA","NA","a","a","13830","NA","NA","67966","13830","2","1872","legacy","large","1024","2","48000","-16","experiment","4_9_add_true.jpg","11","odd","legacy","362916","NA","135786","NA","NA","2601","NA","2618","121956","362916","365934","70585","118884","2603","mousetracking operator preview effect","0","0","0","no","true","no","1680"
"neutral","undefined","1","undefined","undefined","white","no","legacy","legacy","legacy","0","relative","undefined","undefined","77","NA","0","0","0","0","0","0","0","93","93","0","15","0","no","03/31/19 18:48:06","A simple template for the mouse-tracking paradigm","yes","Experiment-TF.osexp","C:\Users\Kristen\Documents\opPreviewExperiment-master\procedure","no","mono","no","24","no","black","no","yes","1050","legacy","77","15","C:/Users/Kristen/Documents/opPreviewExperiment-master/procedure/subject-11.csv","legacy","Kafkaesque Koffka","3.2.6","add","0","a","NA","NA","a","a","13830","NA","NA","67966","13830","2","1336","legacy","small","1024","2","48000","-16","experiment","5_3_add_true.jpg","11","odd","legacy","365965","NA","135786","NA","NA","2601","NA","2618","121956","365965","368275","70585","118884","2603","mousetracking operator preview effect","0","0","0","no","true","no","1680"
"negative","undefined","1","undefined","undefined","white","no","legacy","legacy","legacy","0","relative","undefined","undefined","78","NA","0","0","0","0","0","0","0","94","94","0","15","0","no","03/31/19 18:48:06","A simple template for the mouse-tracking paradigm","yes","Experiment-TF.osexp","C:\Users\Kristen\Documents\opPreviewExperiment-master\procedure","no","mono","no","24","no","black","no","yes","1050","legacy","78","15","C:/Users/Kristen/Documents/opPreviewExperiment-master/procedure/subject-11.csv","legacy","Kafkaesque Koffka","3.2.6","mult","0","a","NA","NA","a","a","13830","NA","NA","67966","13830","2","2319","legacy","large","1024","2","48000","-16","experiment","4_9_mult_true.jpg","11","odd","legacy","368297","NA","135786","NA","NA","2601","NA","2618","121956","368297","371762","70585","118884","2603","mousetracking operator preview effect","0","0","0","no","true","no","1680"
"neutral","undefined","1","undefined","undefined","white","no","legacy","legacy","legacy","0","relative","undefined","undefined","79","NA","0","0","0","0","0","0","0","95","95","0","15","0","no","03/31/19 18:48:06","A simple template for the mouse-tracking paradigm","yes","Experiment-TF.osexp","C:\Users\Kristen\Documents\opPreviewExperiment-master\procedure","no","mono","no","24","no","black","no","yes","1050","legacy","79","15","C:/Users/Kristen/Documents/opPreviewExperiment-master/procedure/subject-11.csv","legacy","Kafkaesque Koffka","3.2.6","add","0","a","NA","NA","a","a","13830","NA","NA","67966","13830","2","2776","legacy","large","1024","2","48000","-16","experiment","6_8_add_true.jpg","11","odd","legacy","371791","NA","135786","NA","NA","2601","NA","2618","121956","371791","375544","70585","118884","2603","mousetracking operator preview effect","0","0","0","no","true","no","1680"
"negative","undefined","1","undefined","undefined","white","no","legacy","legacy","legacy","0","relative","undefined","undefined","80","NA","0","0","0","0","0","0","0","96","96","0","15","0","no","03/31/19 18:48:06","A simple template for the mouse-tracking paradigm","yes","Experiment-TF.osexp","C:\Users\Kristen\Documents\opPreviewExperiment-master\procedure","no","mono","no","24","no","black","no","yes","1050","legacy","80","15","C:/Users/Kristen/Documents/opPreviewExperiment-master/procedure/subject-11.csv","legacy","Kafkaesque Koffka","3.2.6","mult","0","a","NA","NA","a","a","13830","NA","NA","67966","13830","2","2757","legacy","large","1024","2","48000","-16","experiment","9_7_mult_true.jpg","11","odd","legacy","375571","NA","135786","NA","NA","2601","NA","2618","121956","375571","379474","70585","118884","2603","mousetracking operator preview effect","0","0","0","no","true","no","1680"
"neutral","undefined","1","undefined","undefined","white","no","legacy","legacy","legacy","0","relative","undefined","undefined","81","NA","0","0","0","0","0","0","0","97","97","0","15","0","no","03/31/19 18:48:06","A simple template for the mouse-tracking paradigm","yes","Experiment-TF.osexp","C:\Users\Kristen\Documents\opPreviewExperiment-master\procedure","no","mono","no","24","no","black","no","yes","1050","legacy","81","15","C:/Users/Kristen/Documents/opPreviewExperiment-master/procedure/subject-11.csv","legacy","Kafkaesque Koffka","3.2.6","mult","0","a","NA","NA","a","a","13830","NA","NA","67966","13830","2","991","legacy","small","1024","2","48000","-16","experiment","8_2_mult_true.jpg","11","odd","legacy","379488","NA","135786","NA","NA","2601","NA","2618","121956","379488","381452","70585","118884","2603","mousetracking operator preview effect","0","0","0","no","true","no","1680"
"negative","undefined","1","undefined","undefined","white","no","legacy","legacy","legacy","0","relative","undefined","undefined","82","NA","0","0","0","0","0","0","0","98","98","0","15","0","no","03/31/19 18:48:06","A simple template for the mouse-tracking paradigm","yes","Experiment-TF.osexp","C:\Users\Kristen\Documents\opPreviewExperiment-master\procedure","no","mono","no","24","no","black","no","yes","1050","legacy","82","15","C:/Users/Kristen/Documents/opPreviewExperiment-master/procedure/subject-11.csv","legacy","Kafkaesque Koffka","3.2.6","add","0","l","NA","NA","a","a","13830","NA","NA","67966","13830","2","1960","legacy","small","1024","2","48000","-16","experiment","2_7_add_FNI.jpg","11","odd","legacy","381482","NA","135786","NA","NA","2601","NA","2618","121956","381482","384611","70585","118884","2603","mousetracking operator preview effect","0","0","0","no","false","no","1680"
"neutral","undefined","1","undefined","undefined","white","no","legacy","legacy","legacy","0","relative","undefined","undefined","83","NA","0","0","0","0","0","0","0","99","99","0","15","0","no","03/31/19 18:48:06","A simple template for the mouse-tracking paradigm","yes","Experiment-TF.osexp","C:\Users\Kristen\Documents\opPreviewExperiment-master\procedure","no","mono","no","24","no","black","no","yes","1050","legacy","83","15","C:/Users/Kristen/Documents/opPreviewExperiment-master/procedure/subject-11.csv","legacy","Kafkaesque Koffka","3.2.6","mult","0","l","NA","NA","a","a","13830","NA","NA","67966","13830","2","1625","legacy","large","1024","2","48000","-16","experiment","6_8_mult_FNI.jpg","11","odd","legacy","384635","NA","135786","NA","NA","2601","NA","2618","121956","384635","387250","70585","118884","2603","mousetracking operator preview effect","0","0","0","no","false","no","1680"
"negative","undefined","1","undefined","undefined","white","no","legacy","legacy","legacy","0","relative","undefined","undefined","84","NA","0","0","0","0","0","0","0","100","100","0","15","0","no","03/31/19 18:48:06","A simple template for the mouse-tracking paradigm","yes","Experiment-TF.osexp","C:\Users\Kristen\Documents\opPreviewExperiment-master\procedure","no","mono","no","24","no","black","no","yes","1050","legacy","84","15","C:/Users/Kristen/Documents/opPreviewExperiment-master/procedure/subject-11.csv","legacy","Kafkaesque Koffka","3.2.6","mult","0","l","NA","NA","a","a","13830","NA","NA","67966","13830","2","4150","legacy","large","1024","2","48000","-16","experiment","4_9_mult_FNI.jpg","11","odd","legacy","387270","NA","135786","NA","NA","2601","NA","2618","121956","387270","392584","70585","118884","2603","mousetracking operator preview effect","0","0","0","no","false","no","1680"
"neutral","undefined","1","undefined","undefined","white","no","legacy","legacy","legacy","0","relative","undefined","undefined","85","NA","0","0","0","0","0","0","0","101","101","0","15","0","no","03/31/19 18:48:06","A simple template for the mouse-tracking paradigm","yes","Experiment-TF.osexp","C:\Users\Kristen\Documents\opPreviewExperiment-master\procedure","no","mono","no","24","no","black","no","yes","1050","legacy","85","15","C:/Users/Kristen/Documents/opPreviewExperiment-master/procedure/subject-11.csv","legacy","Kafkaesque Koffka","3.2.6","add","0","a","NA","NA","a","a","13830","NA","NA","67966","13830","2","1820","legacy","large","1024","2","48000","-16","experiment","8_4_add_true.jpg","11","odd","legacy","392606","NA","135786","NA","NA","2601","NA","2618","121956","392606","395401","70585","118884","2603","mousetracking operator preview effect","0","0","0","no","true","no","1680"
"neutral","undefined","1","undefined","undefined","white","no","legacy","legacy","legacy","0","relative","undefined","undefined","86","NA","0","0","0","0","0","0","0","102","102","0","15","0","no","03/31/19 18:48:06","A simple template for the mouse-tracking paradigm","yes","Experiment-TF.osexp","C:\Users\Kristen\Documents\opPreviewExperiment-master\procedure","no","mono","no","24","no","black","no","yes","1050","legacy","86","15","C:/Users/Kristen/Documents/opPreviewExperiment-master/procedure/subject-11.csv","legacy","Kafkaesque Koffka","3.2.6","mult","0","l","NA","NA","a","a","13830","NA","NA","67966","13830","2","2228","legacy","large","1024","2","48000","-16","experiment","4_9_mult_FNI.jpg","11","odd","legacy","395432","NA","135786","NA","NA","2601","NA","2618","121956","395432","398637","70585","118884","2603","mousetracking operator preview effect","0","0","0","no","false","no","1680"
"negative","undefined","1","undefined","undefined","white","no","legacy","legacy","legacy","0","relative","undefined","undefined","87","NA","0","0","0","0","0","0","0","103","103","0","15","0","no","03/31/19 18:48:06","A simple template for the mouse-tracking paradigm","yes","Experiment-TF.osexp","C:\Users\Kristen\Documents\opPreviewExperiment-master\procedure","no","mono","no","24","no","black","no","yes","1050","legacy","87","15","C:/Users/Kristen/Documents/opPreviewExperiment-master/procedure/subject-11.csv","legacy","Kafkaesque Koffka","3.2.6","add","0","l","NA","NA","a","a","13830","NA","NA","67966","13830","2","2557","legacy","large","1024","2","48000","-16","experiment","9_7_add_FNI.jpg","11","odd","legacy","398666","NA","135786","NA","NA","2601","NA","2618","121956","398667","402368","70585","118884","2603","mousetracking operator preview effect","0","0","0","no","false","no","1680"
"neutral","undefined","1","undefined","undefined","white","no","legacy","legacy","legacy","0","relative","undefined","undefined","88","NA","0","0","0","0","0","0","0","104","104","0","15","0","no","03/31/19 18:48:06","A simple template for the mouse-tracking paradigm","yes","Experiment-TF.osexp","C:\Users\Kristen\Documents\opPreviewExperiment-master\procedure","no","mono","no","24","no","black","no","yes","1050","legacy","88","15","C:/Users/Kristen/Documents/opPreviewExperiment-master/procedure/subject-11.csv","legacy","Kafkaesque Koffka","3.2.6","add","0","a","NA","NA","a","a","13830","NA","NA","67966","13830","2","2375","legacy","large","1024","2","48000","-16","experiment","4_9_add_true.jpg","11","odd","legacy","402395","NA","135786","NA","NA","2601","NA","2618","121956","402395","405731","70585","118884","2603","mousetracking operator preview effect","0","0","0","no","true","no","1680"
"negative","undefined","1","undefined","undefined","white","no","legacy","legacy","legacy","0","relative","undefined","undefined","89","NA","0","0","0","0","0","0","0","105","105","0","15","0","no","03/31/19 18:48:06","A simple template for the mouse-tracking paradigm","yes","Experiment-TF.osexp","C:\Users\Kristen\Documents\opPreviewExperiment-master\procedure","no","mono","no","24","no","black","no","yes","1050","legacy","89","15","C:/Users/Kristen/Documents/opPreviewExperiment-master/procedure/subject-11.csv","legacy","Kafkaesque Koffka","3.2.6","add","0","l","NA","NA","a","a","13830","NA","NA","67966","13830","2","3149","legacy","small","1024","2","48000","-16","experiment","3_6_add_FI.jpg","11","odd","legacy","405752","NA","135786","NA","NA","2601","NA","2618","121956","405752","410064","70585","118884","2603","mousetracking operator preview effect","0","0","0","no","false","no","1680"
"neutral","undefined","1","undefined","undefined","white","no","legacy","legacy","legacy","0","relative","undefined","undefined","90","NA","0","0","0","0","0","0","0","106","106","0","15","0","no","03/31/19 18:48:06","A simple template for the mouse-tracking paradigm","yes","Experiment-TF.osexp","C:\Users\Kristen\Documents\opPreviewExperiment-master\procedure","no","mono","no","24","no","black","no","yes","1050","legacy","90","15","C:/Users/Kristen/Documents/opPreviewExperiment-master/procedure/subject-11.csv","legacy","Kafkaesque Koffka","3.2.6","mult","0","l","NA","NA","a","a","13830","NA","NA","67966","13830","2","1489","legacy","small","1024","2","48000","-16","experiment","3_6_mult_FNI.jpg","11","odd","legacy","410079","NA","135786","NA","NA","2601","NA","2618","121956","410079","412540","70585","118884","2603","mousetracking operator preview effect","0","0","0","no","false","no","1680"
"neutral","undefined","1","undefined","undefined","white","no","legacy","legacy","legacy","0","relative","undefined","undefined","91","NA","0","0","0","0","0","0","0","107","107","0","15","0","no","03/31/19 18:48:06","A simple template for the mouse-tracking paradigm","yes","Experiment-TF.osexp","C:\Users\Kristen\Documents\opPreviewExperiment-master\procedure","no","mono","no","24","no","black","no","yes","1050","legacy","91","15","C:/Users/Kristen/Documents/opPreviewExperiment-master/procedure/subject-11.csv","legacy","Kafkaesque Koffka","3.2.6","mult","0","a","NA","NA","a","a","13830","NA","NA","67966","13830","2","1651","legacy","small","1024","2","48000","-16","experiment","5_3_mult_true.jpg","11","odd","legacy","412563","NA","135786","NA","NA","2601","NA","2618","121956","412563","415192","70585","118884","2603","mousetracking operator preview effect","0","0","0","no","true","no","1680"
"neutral","undefined","1","undefined","undefined","white","no","legacy","legacy","legacy","0","relative","undefined","undefined","92","NA","0","0","0","0","0","0","0","108","108","0","15","0","no","03/31/19 18:48:06","A simple template for the mouse-tracking paradigm","yes","Experiment-TF.osexp","C:\Users\Kristen\Documents\opPreviewExperiment-master\procedure","no","mono","no","24","no","black","no","yes","1050","legacy","92","15","C:/Users/Kristen/Documents/opPreviewExperiment-master/procedure/subject-11.csv","legacy","Kafkaesque Koffka","3.2.6","mult","0","a","NA","NA","a","a","13830","NA","NA","67966","13830","2","1514","legacy","large","1024","2","48000","-16","experiment","8_4_mult_true.jpg","11","odd","legacy","415206","NA","135786","NA","NA","2601","NA","2618","121956","415206","417695","70585","118884","2603","mousetracking operator preview effect","0","0","0","no","true","no","1680"
