"SOAcondition","acc","accuracy","average_response_time","avg_rt","background","bidi","canvas_backend","clock_backend","color_backend","compensation","coordinates","correct","correct_instruction1","count_block1_sequence","count_block2_sequence","count_block_1","count_block_2","count_breakScreen","count_experiment","count_finish","count_instruction1","count_instruction2","count_keyboard_script","count_logger","count_practiceBlock","count_practice_sequence","count_setup_script","custom_cursor","datetime","description","disable_garbage_collection","experiment_file","experiment_path","font_bold","font_family","font_italic","font_size","font_underline","foreground","form_clicks","fullscreen","height","keyboard_backend","live_row","live_row_practiceBlock","logfile","mouse_backend","opensesame_codename","opensesame_version","operation","repeat_cycle","response","response_breakScreen","response_finish","response_instruction1","response_instruction2","response_time","response_time_breakScreen","response_time_finish","response_time_instruction1","response_time_instruction2","round_decimals","rt","sampler_backend","size","sound_buf_size","sound_channels","sound_freq","sound_sample_size","start","stimulus","subject_nr","subject_parity","synth_backend","time_block1_sequence","time_block2_sequence","time_block_1","time_block_2","time_breakScreen","time_experiment","time_finish","time_instruction1","time_instruction2","time_keyboard_script","time_logger","time_practiceBlock","time_practice_sequence","time_setup_script","title","total_correct","total_response_time","total_responses","transparent_variables","truth","uniform_coordinates","width"
"negative","undefined","1","undefined","undefined","white","no","legacy","legacy","legacy","0","relative","undefined","undefined","NA","NA","0","0","0","0","0","0","0","0","0","0","0","0","no","04/24/19 10:45:21","A simple template for the mouse-tracking paradigm","yes","Experiment-FT.osexp","C:\Users\Kristen\Documents\opPreviewExperiment-master\procedure","no","mono","no","24","no","black","no","yes","1050","legacy","0","0","C:/Users/Kristen/Documents/opPreviewExperiment-master/procedure/subject-18.csv","legacy","Kafkaesque Koffka","3.2.6","add","0","a","NA","NA","l","NA","14170","NA","NA","14170","NA","2","0","legacy","NA","1024","2","48000","-16","experiment","1_4_add_F.jpg","18","even","legacy","NA","NA","NA","NA","NA","2724","NA","2739","NA","16913","18137","16910","16913","2726","mousetracking operator preview effect","0","0","0","no","false","no","1680"
"negative","undefined","1","undefined","undefined","white","no","legacy","legacy","legacy","0","relative","undefined","undefined","NA","NA","0","0","0","0","0","0","0","1","1","0","1","0","no","04/24/19 10:45:21","A simple template for the mouse-tracking paradigm","yes","Experiment-FT.osexp","C:\Users\Kristen\Documents\opPreviewExperiment-master\procedure","no","mono","no","24","no","black","no","yes","1050","legacy","1","1","C:/Users/Kristen/Documents/opPreviewExperiment-master/procedure/subject-18.csv","legacy","Kafkaesque Koffka","3.2.6","add","0","l","NA","NA","l","NA","14170","NA","NA","14170","NA","2","4203","legacy","NA","1024","2","48000","-16","experiment","0_3_add_T.jpg","18","even","legacy","NA","NA","NA","NA","NA","2724","NA","2739","NA","18164","23522","16910","18164","2726","mousetracking operator preview effect","0","0","0","no","true","no","1680"
"negative","undefined","1","undefined","undefined","white","no","legacy","legacy","legacy","0","relative","undefined","undefined","NA","NA","0","0","0","0","0","0","0","2","2","0","2","0","no","04/24/19 10:45:21","A simple template for the mouse-tracking paradigm","yes","Experiment-FT.osexp","C:\Users\Kristen\Documents\opPreviewExperiment-master\procedure","no","mono","no","24","no","black","no","yes","1050","legacy","2","2","C:/Users/Kristen/Documents/opPreviewExperiment-master/procedure/subject-18.csv","legacy","Kafkaesque Koffka","3.2.6","mult","0","a","NA","NA","l","NA","14170","NA","NA","14170","NA","2","1846","legacy","NA","1024","2","48000","-16","experiment","1_4_mult_F.jpg","18","even","legacy","NA","NA","NA","NA","NA","2724","NA","2739","NA","23544","26567","16910","23544","2726","mousetracking operator preview effect","0","0","0","no","false","no","1680"
"neutral","undefined","1","undefined","undefined","white","no","legacy","legacy","legacy","0","relative","undefined","undefined","NA","NA","0","0","0","0","0","0","0","3","3","0","3","0","no","04/24/19 10:45:21","A simple template for the mouse-tracking paradigm","yes","Experiment-FT.osexp","C:\Users\Kristen\Documents\opPreviewExperiment-master\procedure","no","mono","no","24","no","black","no","yes","1050","legacy","3","3","C:/Users/Kristen/Documents/opPreviewExperiment-master/procedure/subject-18.csv","legacy","Kafkaesque Koffka","3.2.6","add","0","l","NA","NA","l","NA","14170","NA","NA","14170","NA","2","927","legacy","NA","1024","2","48000","-16","experiment","0_3_add_T.jpg","18","even","legacy","NA","NA","NA","NA","NA","2724","NA","2739","NA","26587","28495","16910","26587","2726","mousetracking operator preview effect","0","0","0","no","true","no","1680"
"neutral","undefined","0","undefined","undefined","white","no","legacy","legacy","legacy","0","relative","undefined","undefined","NA","NA","0","0","0","0","0","0","0","4","4","0","4","0","no","04/24/19 10:45:21","A simple template for the mouse-tracking paradigm","yes","Experiment-FT.osexp","C:\Users\Kristen\Documents\opPreviewExperiment-master\procedure","no","mono","no","24","no","black","no","yes","1050","legacy","4","4","C:/Users/Kristen/Documents/opPreviewExperiment-master/procedure/subject-18.csv","legacy","Kafkaesque Koffka","3.2.6","mult","0","a","NA","NA","l","NA","14170","NA","NA","14170","NA","2","1074","legacy","NA","1024","2","48000","-16","experiment","1_4_mult_T.jpg","18","even","legacy","NA","NA","NA","NA","NA","2724","NA","2739","NA","28525","31622","16910","28525","2726","mousetracking operator preview effect","0","0","0","no","true","no","1680"
"negative","undefined","1","undefined","undefined","white","no","legacy","legacy","legacy","0","relative","undefined","undefined","NA","NA","0","0","0","0","0","0","0","5","5","0","5","0","no","04/24/19 10:45:21","A simple template for the mouse-tracking paradigm","yes","Experiment-FT.osexp","C:\Users\Kristen\Documents\opPreviewExperiment-master\procedure","no","mono","no","24","no","black","no","yes","1050","legacy","5","5","C:/Users/Kristen/Documents/opPreviewExperiment-master/procedure/subject-18.csv","legacy","Kafkaesque Koffka","3.2.6","mult","0","a","NA","NA","l","NA","14170","NA","NA","14170","NA","2","2543","legacy","NA","1024","2","48000","-16","experiment","0_3_mult_F.jpg","18","even","legacy","NA","NA","NA","NA","NA","2724","NA","2739","NA","31663","35341","16910","31663","2726","mousetracking operator preview effect","0","0","0","no","false","no","1680"
"neutral","undefined","1","undefined","undefined","white","no","legacy","legacy","legacy","0","relative","undefined","undefined","NA","NA","0","0","0","0","0","0","0","6","6","0","6","0","no","04/24/19 10:45:21","A simple template for the mouse-tracking paradigm","yes","Experiment-FT.osexp","C:\Users\Kristen\Documents\opPreviewExperiment-master\procedure","no","mono","no","24","no","black","no","yes","1050","legacy","6","6","C:/Users/Kristen/Documents/opPreviewExperiment-master/procedure/subject-18.csv","legacy","Kafkaesque Koffka","3.2.6","mult","0","a","NA","NA","l","NA","14170","NA","NA","14170","NA","2","863","legacy","NA","1024","2","48000","-16","experiment","0_3_mult_F.jpg","18","even","legacy","NA","NA","NA","NA","NA","2724","NA","2739","NA","35357","37199","16910","35357","2726","mousetracking operator preview effect","0","0","0","no","false","no","1680"
"neutral","undefined","1","undefined","undefined","white","no","legacy","legacy","legacy","0","relative","undefined","undefined","NA","NA","0","0","0","0","0","0","0","7","7","0","7","0","no","04/24/19 10:45:21","A simple template for the mouse-tracking paradigm","yes","Experiment-FT.osexp","C:\Users\Kristen\Documents\opPreviewExperiment-master\procedure","no","mono","no","24","no","black","no","yes","1050","legacy","7","7","C:/Users/Kristen/Documents/opPreviewExperiment-master/procedure/subject-18.csv","legacy","Kafkaesque Koffka","3.2.6","add","0","a","NA","NA","l","NA","14170","NA","NA","14170","NA","2","1439","legacy","NA","1024","2","48000","-16","experiment","0_3_add_F.jpg","18","even","legacy","NA","NA","NA","NA","NA","2724","NA","2739","NA","37220","39654","16910","37220","2726","mousetracking operator preview effect","0","0","0","no","false","no","1680"
"negative","undefined","1","undefined","undefined","white","no","legacy","legacy","legacy","0","relative","undefined","undefined","NA","NA","0","0","0","0","0","0","0","8","8","0","8","0","no","04/24/19 10:45:21","A simple template for the mouse-tracking paradigm","yes","Experiment-FT.osexp","C:\Users\Kristen\Documents\opPreviewExperiment-master\procedure","no","mono","no","24","no","black","no","yes","1050","legacy","8","8","C:/Users/Kristen/Documents/opPreviewExperiment-master/procedure/subject-18.csv","legacy","Kafkaesque Koffka","3.2.6","mult","0","l","NA","NA","l","NA","14170","NA","NA","14170","NA","2","2107","legacy","NA","1024","2","48000","-16","experiment","0_3_mult_T.jpg","18","even","legacy","NA","NA","NA","NA","NA","2724","NA","2739","NA","39679","42959","16910","39679","2726","mousetracking operator preview effect","0","0","0","no","true","no","1680"
"neutral","undefined","1","undefined","undefined","white","no","legacy","legacy","legacy","0","relative","undefined","undefined","NA","NA","0","0","0","0","0","0","0","9","9","0","9","0","no","04/24/19 10:45:21","A simple template for the mouse-tracking paradigm","yes","Experiment-FT.osexp","C:\Users\Kristen\Documents\opPreviewExperiment-master\procedure","no","mono","no","24","no","black","no","yes","1050","legacy","9","9","C:/Users/Kristen/Documents/opPreviewExperiment-master/procedure/subject-18.csv","legacy","Kafkaesque Koffka","3.2.6","mult","0","l","NA","NA","l","NA","14170","NA","NA","14170","NA","2","1180","legacy","NA","1024","2","48000","-16","experiment","0_3_mult_T.jpg","18","even","legacy","NA","NA","NA","NA","NA","2724","NA","2739","NA","42974","45131","16910","42974","2726","mousetracking operator preview effect","0","0","0","no","true","no","1680"
"negative","undefined","1","undefined","undefined","white","no","legacy","legacy","legacy","0","relative","undefined","undefined","NA","NA","0","0","0","0","0","0","0","10","10","0","10","0","no","04/24/19 10:45:21","A simple template for the mouse-tracking paradigm","yes","Experiment-FT.osexp","C:\Users\Kristen\Documents\opPreviewExperiment-master\procedure","no","mono","no","24","no","black","no","yes","1050","legacy","10","10","C:/Users/Kristen/Documents/opPreviewExperiment-master/procedure/subject-18.csv","legacy","Kafkaesque Koffka","3.2.6","add","0","l","NA","NA","l","NA","14170","NA","NA","14170","NA","2","1318","legacy","NA","1024","2","48000","-16","experiment","1_4_add_T.jpg","18","even","legacy","NA","NA","NA","NA","NA","2724","NA","2739","NA","45162","47660","16910","45162","2726","mousetracking operator preview effect","0","0","0","no","true","no","1680"
"neutral","undefined","1","undefined","undefined","white","no","legacy","legacy","legacy","0","relative","undefined","undefined","NA","NA","0","0","0","0","0","0","0","11","11","0","11","0","no","04/24/19 10:45:21","A simple template for the mouse-tracking paradigm","yes","Experiment-FT.osexp","C:\Users\Kristen\Documents\opPreviewExperiment-master\procedure","no","mono","no","24","no","black","no","yes","1050","legacy","11","11","C:/Users/Kristen/Documents/opPreviewExperiment-master/procedure/subject-18.csv","legacy","Kafkaesque Koffka","3.2.6","add","0","l","NA","NA","l","NA","14170","NA","NA","14170","NA","2","956","legacy","NA","1024","2","48000","-16","experiment","1_4_add_T.jpg","18","even","legacy","NA","NA","NA","NA","NA","2724","NA","2739","NA","47689","49622","16910","47689","2726","mousetracking operator preview effect","0","0","0","no","true","no","1680"
"neutral","undefined","1","undefined","undefined","white","no","legacy","legacy","legacy","0","relative","undefined","undefined","NA","NA","0","0","0","0","0","0","0","12","12","0","12","0","no","04/24/19 10:45:21","A simple template for the mouse-tracking paradigm","yes","Experiment-FT.osexp","C:\Users\Kristen\Documents\opPreviewExperiment-master\procedure","no","mono","no","24","no","black","no","yes","1050","legacy","12","12","C:/Users/Kristen/Documents/opPreviewExperiment-master/procedure/subject-18.csv","legacy","Kafkaesque Koffka","3.2.6","add","0","a","NA","NA","l","NA","14170","NA","NA","14170","NA","2","1153","legacy","NA","1024","2","48000","-16","experiment","1_4_add_F.jpg","18","even","legacy","NA","NA","NA","NA","NA","2724","NA","2739","NA","49649","51778","16910","49649","2726","mousetracking operator preview effect","0","0","0","no","false","no","1680"
"negative","undefined","1","undefined","undefined","white","no","legacy","legacy","legacy","0","relative","undefined","undefined","NA","NA","0","0","0","0","0","0","0","13","13","0","13","0","no","04/24/19 10:45:21","A simple template for the mouse-tracking paradigm","yes","Experiment-FT.osexp","C:\Users\Kristen\Documents\opPreviewExperiment-master\procedure","no","mono","no","24","no","black","no","yes","1050","legacy","13","13","C:/Users/Kristen/Documents/opPreviewExperiment-master/procedure/subject-18.csv","legacy","Kafkaesque Koffka","3.2.6","mult","0","l","NA","NA","l","NA","14170","NA","NA","14170","NA","2","1499","legacy","NA","1024","2","48000","-16","experiment","1_4_mult_T.jpg","18","even","legacy","NA","NA","NA","NA","NA","2724","NA","2739","NA","51793","54443","16910","51793","2726","mousetracking operator preview effect","0","0","0","no","true","no","1680"
"negative","undefined","1","undefined","undefined","white","no","legacy","legacy","legacy","0","relative","undefined","undefined","NA","NA","0","0","0","0","0","0","0","14","14","0","14","0","no","04/24/19 10:45:21","A simple template for the mouse-tracking paradigm","yes","Experiment-FT.osexp","C:\Users\Kristen\Documents\opPreviewExperiment-master\procedure","no","mono","no","24","no","black","no","yes","1050","legacy","14","14","C:/Users/Kristen/Documents/opPreviewExperiment-master/procedure/subject-18.csv","legacy","Kafkaesque Koffka","3.2.6","add","0","a","NA","NA","l","NA","14170","NA","NA","14170","NA","2","1181","legacy","NA","1024","2","48000","-16","experiment","0_3_add_F.jpg","18","even","legacy","NA","NA","NA","NA","NA","2724","NA","2739","NA","54457","56776","16910","54457","2726","mousetracking operator preview effect","0","0","0","no","false","no","1680"
"neutral","undefined","1","undefined","undefined","white","no","legacy","legacy","legacy","0","relative","undefined","undefined","NA","NA","0","0","0","0","0","0","0","15","15","0","15","0","no","04/24/19 10:45:21","A simple template for the mouse-tracking paradigm","yes","Experiment-FT.osexp","C:\Users\Kristen\Documents\opPreviewExperiment-master\procedure","no","mono","no","24","no","black","no","yes","1050","legacy","15","15","C:/Users/Kristen/Documents/opPreviewExperiment-master/procedure/subject-18.csv","legacy","Kafkaesque Koffka","3.2.6","mult","0","a","NA","NA","l","NA","14170","NA","NA","14170","NA","2","6355","legacy","NA","1024","2","48000","-16","experiment","1_4_mult_F.jpg","18","even","legacy","NA","NA","NA","NA","NA","2724","NA","2739","NA","56807","64134","16910","56807","2726","mousetracking operator preview effect","0","0","0","no","false","no","1680"
"neutral","undefined","1","undefined","undefined","white","no","legacy","legacy","legacy","0","relative","undefined","undefined","0","NA","0","0","0","0","0","0","0","16","16","0","15","0","no","04/24/19 10:45:21","A simple template for the mouse-tracking paradigm","yes","Experiment-FT.osexp","C:\Users\Kristen\Documents\opPreviewExperiment-master\procedure","no","mono","no","24","no","black","no","yes","1050","legacy","0","15","C:/Users/Kristen/Documents/opPreviewExperiment-master/procedure/subject-18.csv","legacy","Kafkaesque Koffka","3.2.6","mult","0","l","NA","NA","l","l","11554","NA","NA","14170","11554","2","2740","legacy","large","1024","2","48000","-16","experiment","4_9_mult_true.jpg","18","even","legacy","75723","NA","75707","NA","NA","2724","NA","2739","64153","75723","79545","16910","56807","2726","mousetracking operator preview effect","0","0","0","no","true","no","1680"
"neutral","undefined","1","undefined","undefined","white","no","legacy","legacy","legacy","0","relative","undefined","undefined","1","NA","0","0","0","0","0","0","0","17","17","0","15","0","no","04/24/19 10:45:21","A simple template for the mouse-tracking paradigm","yes","Experiment-FT.osexp","C:\Users\Kristen\Documents\opPreviewExperiment-master\procedure","no","mono","no","24","no","black","no","yes","1050","legacy","1","15","C:/Users/Kristen/Documents/opPreviewExperiment-master/procedure/subject-18.csv","legacy","Kafkaesque Koffka","3.2.6","add","0","a","NA","NA","l","l","11554","NA","NA","14170","11554","2","2122","legacy","large","1024","2","48000","-16","experiment","8_4_add_FI.jpg","18","even","legacy","79570","NA","75707","NA","NA","2724","NA","2739","64153","79570","82646","16910","56807","2726","mousetracking operator preview effect","0","0","0","no","false","no","1680"
"neutral","undefined","1","undefined","undefined","white","no","legacy","legacy","legacy","0","relative","undefined","undefined","2","NA","0","0","0","0","0","0","0","18","18","0","15","0","no","04/24/19 10:45:21","A simple template for the mouse-tracking paradigm","yes","Experiment-FT.osexp","C:\Users\Kristen\Documents\opPreviewExperiment-master\procedure","no","mono","no","24","no","black","no","yes","1050","legacy","2","15","C:/Users/Kristen/Documents/opPreviewExperiment-master/procedure/subject-18.csv","legacy","Kafkaesque Koffka","3.2.6","add","0","a","NA","NA","l","l","11554","NA","NA","14170","11554","2","1577","legacy","large","1024","2","48000","-16","experiment","6_8_add_FI.jpg","18","even","legacy","82677","NA","75707","NA","NA","2724","NA","2739","64153","82677","85219","16910","56807","2726","mousetracking operator preview effect","0","0","0","no","false","no","1680"
"negative","undefined","1","undefined","undefined","white","no","legacy","legacy","legacy","0","relative","undefined","undefined","3","NA","0","0","0","0","0","0","0","19","19","0","15","0","no","04/24/19 10:45:21","A simple template for the mouse-tracking paradigm","yes","Experiment-FT.osexp","C:\Users\Kristen\Documents\opPreviewExperiment-master\procedure","no","mono","no","24","no","black","no","yes","1050","legacy","3","15","C:/Users/Kristen/Documents/opPreviewExperiment-master/procedure/subject-18.csv","legacy","Kafkaesque Koffka","3.2.6","add","0","a","NA","NA","l","l","11554","NA","NA","14170","11554","2","1020","legacy","large","1024","2","48000","-16","experiment","6_8_add_FI.jpg","18","even","legacy","85260","NA","75707","NA","NA","2724","NA","2739","64153","85260","87398","16910","56807","2726","mousetracking operator preview effect","0","0","0","no","false","no","1680"
"negative","undefined","1","undefined","undefined","white","no","legacy","legacy","legacy","0","relative","undefined","undefined","4","NA","0","0","0","0","0","0","0","20","20","0","15","0","no","04/24/19 10:45:21","A simple template for the mouse-tracking paradigm","yes","Experiment-FT.osexp","C:\Users\Kristen\Documents\opPreviewExperiment-master\procedure","no","mono","no","24","no","black","no","yes","1050","legacy","4","15","C:/Users/Kristen/Documents/opPreviewExperiment-master/procedure/subject-18.csv","legacy","Kafkaesque Koffka","3.2.6","mult","0","a","NA","NA","l","l","11554","NA","NA","14170","11554","2","1284","legacy","small","1024","2","48000","-16","experiment","3_6_mult_FNI.jpg","18","even","legacy","87439","NA","75707","NA","NA","2724","NA","2739","64153","87439","89864","16910","56807","2726","mousetracking operator preview effect","0","0","0","no","false","no","1680"
"negative","undefined","0","undefined","undefined","white","no","legacy","legacy","legacy","0","relative","undefined","undefined","5","NA","0","0","0","0","0","0","0","21","21","0","15","0","no","04/24/19 10:45:21","A simple template for the mouse-tracking paradigm","yes","Experiment-FT.osexp","C:\Users\Kristen\Documents\opPreviewExperiment-master\procedure","no","mono","no","24","no","black","no","yes","1050","legacy","5","15","C:/Users/Kristen/Documents/opPreviewExperiment-master/procedure/subject-18.csv","legacy","Kafkaesque Koffka","3.2.6","add","0","a","NA","NA","l","l","11554","NA","NA","14170","11554","2","1814","legacy","large","1024","2","48000","-16","experiment","4_9_add_true.jpg","18","even","legacy","89883","NA","75707","NA","NA","2724","NA","2739","64153","89883","93843","16910","56807","2726","mousetracking operator preview effect","0","0","0","no","true","no","1680"
"neutral","undefined","1","undefined","undefined","white","no","legacy","legacy","legacy","0","relative","undefined","undefined","6","NA","0","0","0","0","0","0","0","22","22","0","15","0","no","04/24/19 10:45:21","A simple template for the mouse-tracking paradigm","yes","Experiment-FT.osexp","C:\Users\Kristen\Documents\opPreviewExperiment-master\procedure","no","mono","no","24","no","black","no","yes","1050","legacy","6","15","C:/Users/Kristen/Documents/opPreviewExperiment-master/procedure/subject-18.csv","legacy","Kafkaesque Koffka","3.2.6","add","0","l","NA","NA","l","l","11554","NA","NA","14170","11554","2","1305","legacy","small","1024","2","48000","-16","experiment","5_3_add_true.jpg","18","even","legacy","93892","NA","75707","NA","NA","2724","NA","2739","64153","93892","96152","16910","56807","2726","mousetracking operator preview effect","0","0","0","no","true","no","1680"
"neutral","undefined","1","undefined","undefined","white","no","legacy","legacy","legacy","0","relative","undefined","undefined","7","NA","0","0","0","0","0","0","0","23","23","0","15","0","no","04/24/19 10:45:21","A simple template for the mouse-tracking paradigm","yes","Experiment-FT.osexp","C:\Users\Kristen\Documents\opPreviewExperiment-master\procedure","no","mono","no","24","no","black","no","yes","1050","legacy","7","15","C:/Users/Kristen/Documents/opPreviewExperiment-master/procedure/subject-18.csv","legacy","Kafkaesque Koffka","3.2.6","add","0","a","NA","NA","l","l","11554","NA","NA","14170","11554","2","1358","legacy","small","1024","2","48000","-16","experiment","2_7_add_FNI.jpg","18","even","legacy","96302","NA","75707","NA","NA","2724","NA","2739","64153","96303","98656","16910","56807","2726","mousetracking operator preview effect","0","0","0","no","false","no","1680"
"negative","undefined","1","undefined","undefined","white","no","legacy","legacy","legacy","0","relative","undefined","undefined","8","NA","0","0","0","0","0","0","0","24","24","0","15","0","no","04/24/19 10:45:21","A simple template for the mouse-tracking paradigm","yes","Experiment-FT.osexp","C:\Users\Kristen\Documents\opPreviewExperiment-master\procedure","no","mono","no","24","no","black","no","yes","1050","legacy","8","15","C:/Users/Kristen/Documents/opPreviewExperiment-master/procedure/subject-18.csv","legacy","Kafkaesque Koffka","3.2.6","mult","0","l","NA","NA","l","l","11554","NA","NA","14170","11554","2","1269","legacy","small","1024","2","48000","-16","experiment","3_6_mult_true.jpg","18","even","legacy","98674","NA","75707","NA","NA","2724","NA","2739","64153","98674","101061","16910","56807","2726","mousetracking operator preview effect","0","0","0","no","true","no","1680"
"neutral","undefined","1","undefined","undefined","white","no","legacy","legacy","legacy","0","relative","undefined","undefined","9","NA","0","0","0","0","0","0","0","25","25","0","15","0","no","04/24/19 10:45:21","A simple template for the mouse-tracking paradigm","yes","Experiment-FT.osexp","C:\Users\Kristen\Documents\opPreviewExperiment-master\procedure","no","mono","no","24","no","black","no","yes","1050","legacy","9","15","C:/Users/Kristen/Documents/opPreviewExperiment-master/procedure/subject-18.csv","legacy","Kafkaesque Koffka","3.2.6","mult","0","a","NA","NA","l","l","11554","NA","NA","14170","11554","2","1871","legacy","large","1024","2","48000","-16","experiment","6_8_mult_FI.jpg","18","even","legacy","101081","NA","75707","NA","NA","2724","NA","2739","64153","101081","103907","16910","56807","2726","mousetracking operator preview effect","0","0","0","no","false","no","1680"
"negative","undefined","0","undefined","undefined","white","no","legacy","legacy","legacy","0","relative","undefined","undefined","10","NA","0","0","0","0","0","0","0","26","26","0","15","0","no","04/24/19 10:45:21","A simple template for the mouse-tracking paradigm","yes","Experiment-FT.osexp","C:\Users\Kristen\Documents\opPreviewExperiment-master\procedure","no","mono","no","24","no","black","no","yes","1050","legacy","10","15","C:/Users/Kristen/Documents/opPreviewExperiment-master/procedure/subject-18.csv","legacy","Kafkaesque Koffka","3.2.6","add","0","l","NA","NA","l","l","11554","NA","NA","14170","11554","2","1782","legacy","large","1024","2","48000","-16","experiment","4_9_add_FNI.jpg","18","even","legacy","103937","NA","75707","NA","NA","2724","NA","2739","64153","103937","107852","16910","56807","2726","mousetracking operator preview effect","0","0","0","no","false","no","1680"
"neutral","undefined","1","undefined","undefined","white","no","legacy","legacy","legacy","0","relative","undefined","undefined","11","NA","0","0","0","0","0","0","0","27","27","0","15","0","no","04/24/19 10:45:21","A simple template for the mouse-tracking paradigm","yes","Experiment-FT.osexp","C:\Users\Kristen\Documents\opPreviewExperiment-master\procedure","no","mono","no","24","no","black","no","yes","1050","legacy","11","15","C:/Users/Kristen/Documents/opPreviewExperiment-master/procedure/subject-18.csv","legacy","Kafkaesque Koffka","3.2.6","add","0","a","NA","NA","l","l","11554","NA","NA","14170","11554","2","1408","legacy","large","1024","2","48000","-16","experiment","6_8_add_FNI.jpg","18","even","legacy","107885","NA","75707","NA","NA","2724","NA","2739","64153","107885","110290","16910","56807","2726","mousetracking operator preview effect","0","0","0","no","false","no","1680"
"negative","undefined","1","undefined","undefined","white","no","legacy","legacy","legacy","0","relative","undefined","undefined","12","NA","0","0","0","0","0","0","0","28","28","0","15","0","no","04/24/19 10:45:21","A simple template for the mouse-tracking paradigm","yes","Experiment-FT.osexp","C:\Users\Kristen\Documents\opPreviewExperiment-master\procedure","no","mono","no","24","no","black","no","yes","1050","legacy","12","15","C:/Users/Kristen/Documents/opPreviewExperiment-master/procedure/subject-18.csv","legacy","Kafkaesque Koffka","3.2.6","mult","0","a","NA","NA","l","l","11554","NA","NA","14170","11554","2","1376","legacy","small","1024","2","48000","-16","experiment","2_7_mult_FI.jpg","18","even","legacy","110311","NA","75707","NA","NA","2724","NA","2739","64153","110311","112849","16910","56807","2726","mousetracking operator preview effect","0","0","0","no","false","no","1680"
"negative","undefined","1","undefined","undefined","white","no","legacy","legacy","legacy","0","relative","undefined","undefined","13","NA","0","0","0","0","0","0","0","29","29","0","15","0","no","04/24/19 10:45:21","A simple template for the mouse-tracking paradigm","yes","Experiment-FT.osexp","C:\Users\Kristen\Documents\opPreviewExperiment-master\procedure","no","mono","no","24","no","black","no","yes","1050","legacy","13","15","C:/Users/Kristen/Documents/opPreviewExperiment-master/procedure/subject-18.csv","legacy","Kafkaesque Koffka","3.2.6","add","0","l","NA","NA","l","l","11554","NA","NA","14170","11554","2","2360","legacy","small","1024","2","48000","-16","experiment","8_2_add_true.jpg","18","even","legacy","112877","NA","75707","NA","NA","2724","NA","2739","64153","112877","116404","16910","56807","2726","mousetracking operator preview effect","0","0","0","no","true","no","1680"
"neutral","undefined","1","undefined","undefined","white","no","legacy","legacy","legacy","0","relative","undefined","undefined","14","NA","0","0","0","0","0","0","0","30","30","0","15","0","no","04/24/19 10:45:21","A simple template for the mouse-tracking paradigm","yes","Experiment-FT.osexp","C:\Users\Kristen\Documents\opPreviewExperiment-master\procedure","no","mono","no","24","no","black","no","yes","1050","legacy","14","15","C:/Users/Kristen/Documents/opPreviewExperiment-master/procedure/subject-18.csv","legacy","Kafkaesque Koffka","3.2.6","add","0","a","NA","NA","l","l","11554","NA","NA","14170","11554","2","1129","legacy","large","1024","2","48000","-16","experiment","8_4_add_FNI.jpg","18","even","legacy","116432","NA","75707","NA","NA","2724","NA","2739","64153","116433","118559","16910","56807","2726","mousetracking operator preview effect","0","0","0","no","false","no","1680"
"neutral","undefined","1","undefined","undefined","white","no","legacy","legacy","legacy","0","relative","undefined","undefined","15","NA","0","0","0","0","0","0","0","31","31","0","15","0","no","04/24/19 10:45:21","A simple template for the mouse-tracking paradigm","yes","Experiment-FT.osexp","C:\Users\Kristen\Documents\opPreviewExperiment-master\procedure","no","mono","no","24","no","black","no","yes","1050","legacy","15","15","C:/Users/Kristen/Documents/opPreviewExperiment-master/procedure/subject-18.csv","legacy","Kafkaesque Koffka","3.2.6","mult","0","a","NA","NA","l","l","11554","NA","NA","14170","11554","2","1443","legacy","large","1024","2","48000","-16","experiment","8_4_mult_FI.jpg","18","even","legacy","118573","NA","75707","NA","NA","2724","NA","2739","64153","118573","121020","16910","56807","2726","mousetracking operator preview effect","0","0","0","no","false","no","1680"
"neutral","undefined","1","undefined","undefined","white","no","legacy","legacy","legacy","0","relative","undefined","undefined","16","NA","0","0","0","0","0","0","0","32","32","0","15","0","no","04/24/19 10:45:21","A simple template for the mouse-tracking paradigm","yes","Experiment-FT.osexp","C:\Users\Kristen\Documents\opPreviewExperiment-master\procedure","no","mono","no","24","no","black","no","yes","1050","legacy","16","15","C:/Users/Kristen/Documents/opPreviewExperiment-master/procedure/subject-18.csv","legacy","Kafkaesque Koffka","3.2.6","add","0","l","NA","NA","l","l","11554","NA","NA","14170","11554","2","1331","legacy","large","1024","2","48000","-16","experiment","6_8_add_true.jpg","18","even","legacy","121038","NA","75707","NA","NA","2724","NA","2739","64153","121038","123354","16910","56807","2726","mousetracking operator preview effect","0","0","0","no","true","no","1680"
"neutral","undefined","1","undefined","undefined","white","no","legacy","legacy","legacy","0","relative","undefined","undefined","17","NA","0","0","0","0","0","0","0","33","33","0","15","0","no","04/24/19 10:45:21","A simple template for the mouse-tracking paradigm","yes","Experiment-FT.osexp","C:\Users\Kristen\Documents\opPreviewExperiment-master\procedure","no","mono","no","24","no","black","no","yes","1050","legacy","17","15","C:/Users/Kristen/Documents/opPreviewExperiment-master/procedure/subject-18.csv","legacy","Kafkaesque Koffka","3.2.6","mult","0","l","NA","NA","l","l","11554","NA","NA","14170","11554","2","945","legacy","large","1024","2","48000","-16","experiment","8_4_mult_true.jpg","18","even","legacy","123379","NA","75707","NA","NA","2724","NA","2739","64153","123379","125306","16910","56807","2726","mousetracking operator preview effect","0","0","0","no","true","no","1680"
"neutral","undefined","1","undefined","undefined","white","no","legacy","legacy","legacy","0","relative","undefined","undefined","18","NA","0","0","0","0","0","0","0","34","34","0","15","0","no","04/24/19 10:45:21","A simple template for the mouse-tracking paradigm","yes","Experiment-FT.osexp","C:\Users\Kristen\Documents\opPreviewExperiment-master\procedure","no","mono","no","24","no","black","no","yes","1050","legacy","18","15","C:/Users/Kristen/Documents/opPreviewExperiment-master/procedure/subject-18.csv","legacy","Kafkaesque Koffka","3.2.6","add","0","l","NA","NA","l","l","11554","NA","NA","14170","11554","2","1645","legacy","large","1024","2","48000","-16","experiment","9_7_add_true.jpg","18","even","legacy","125323","NA","75707","NA","NA","2724","NA","2739","64153","125323","127969","16910","56807","2726","mousetracking operator preview effect","0","0","0","no","true","no","1680"
"neutral","undefined","1","undefined","undefined","white","no","legacy","legacy","legacy","0","relative","undefined","undefined","19","NA","0","0","0","0","0","0","0","35","35","0","15","0","no","04/24/19 10:45:21","A simple template for the mouse-tracking paradigm","yes","Experiment-FT.osexp","C:\Users\Kristen\Documents\opPreviewExperiment-master\procedure","no","mono","no","24","no","black","no","yes","1050","legacy","19","15","C:/Users/Kristen/Documents/opPreviewExperiment-master/procedure/subject-18.csv","legacy","Kafkaesque Koffka","3.2.6","mult","0","a","NA","NA","l","l","11554","NA","NA","14170","11554","2","865","legacy","small","1024","2","48000","-16","experiment","8_2_mult_FNI.jpg","18","even","legacy","127991","NA","75707","NA","NA","2724","NA","2739","64153","127991","129858","16910","56807","2726","mousetracking operator preview effect","0","0","0","no","false","no","1680"
"negative","undefined","1","undefined","undefined","white","no","legacy","legacy","legacy","0","relative","undefined","undefined","20","NA","0","0","0","0","0","0","0","36","36","0","15","0","no","04/24/19 10:45:21","A simple template for the mouse-tracking paradigm","yes","Experiment-FT.osexp","C:\Users\Kristen\Documents\opPreviewExperiment-master\procedure","no","mono","no","24","no","black","no","yes","1050","legacy","20","15","C:/Users/Kristen/Documents/opPreviewExperiment-master/procedure/subject-18.csv","legacy","Kafkaesque Koffka","3.2.6","add","0","a","NA","NA","l","l","11554","NA","NA","14170","11554","2","1239","legacy","large","1024","2","48000","-16","experiment","9_7_add_FNI.jpg","18","even","legacy","129888","NA","75707","NA","NA","2724","NA","2739","64153","129888","132272","16910","56807","2726","mousetracking operator preview effect","0","0","0","no","false","no","1680"
"neutral","undefined","1","undefined","undefined","white","no","legacy","legacy","legacy","0","relative","undefined","undefined","21","NA","0","0","0","0","0","0","0","37","37","0","15","0","no","04/24/19 10:45:21","A simple template for the mouse-tracking paradigm","yes","Experiment-FT.osexp","C:\Users\Kristen\Documents\opPreviewExperiment-master\procedure","no","mono","no","24","no","black","no","yes","1050","legacy","21","15","C:/Users/Kristen/Documents/opPreviewExperiment-master/procedure/subject-18.csv","legacy","Kafkaesque Koffka","3.2.6","mult","0","l","NA","NA","l","l","11554","NA","NA","14170","11554","2","1304","legacy","small","1024","2","48000","-16","experiment","5_3_mult_true.jpg","18","even","legacy","132297","NA","75707","NA","NA","2724","NA","2739","64153","132297","134600","16910","56807","2726","mousetracking operator preview effect","0","0","0","no","true","no","1680"
"neutral","undefined","0","undefined","undefined","white","no","legacy","legacy","legacy","0","relative","undefined","undefined","22","NA","0","0","0","0","0","0","0","38","38","0","15","0","no","04/24/19 10:45:21","A simple template for the mouse-tracking paradigm","yes","Experiment-FT.osexp","C:\Users\Kristen\Documents\opPreviewExperiment-master\procedure","no","mono","no","24","no","black","no","yes","1050","legacy","22","15","C:/Users/Kristen/Documents/opPreviewExperiment-master/procedure/subject-18.csv","legacy","Kafkaesque Koffka","3.2.6","add","0","l","NA","NA","l","l","11554","NA","NA","14170","11554","2","1185","legacy","large","1024","2","48000","-16","experiment","4_9_add_FNI.jpg","18","even","legacy","134621","NA","75707","NA","NA","2724","NA","2739","64153","134621","137808","16910","56807","2726","mousetracking operator preview effect","0","0","0","no","false","no","1680"
"negative","undefined","1","undefined","undefined","white","no","legacy","legacy","legacy","0","relative","undefined","undefined","23","NA","0","0","0","0","0","0","0","39","39","0","15","0","no","04/24/19 10:45:21","A simple template for the mouse-tracking paradigm","yes","Experiment-FT.osexp","C:\Users\Kristen\Documents\opPreviewExperiment-master\procedure","no","mono","no","24","no","black","no","yes","1050","legacy","23","15","C:/Users/Kristen/Documents/opPreviewExperiment-master/procedure/subject-18.csv","legacy","Kafkaesque Koffka","3.2.6","add","0","a","NA","NA","l","l","11554","NA","NA","14170","11554","2","1469","legacy","small","1024","2","48000","-16","experiment","5_3_add_FNI.jpg","18","even","legacy","137848","NA","75707","NA","NA","2724","NA","2739","64153","137849","140496","16910","56807","2726","mousetracking operator preview effect","0","0","0","no","false","no","1680"
"neutral","undefined","0","undefined","undefined","white","no","legacy","legacy","legacy","0","relative","undefined","undefined","24","NA","0","0","0","0","0","0","0","40","40","0","15","0","no","04/24/19 10:45:21","A simple template for the mouse-tracking paradigm","yes","Experiment-FT.osexp","C:\Users\Kristen\Documents\opPreviewExperiment-master\procedure","no","mono","no","24","no","black","no","yes","1050","legacy","24","15","C:/Users/Kristen/Documents/opPreviewExperiment-master/procedure/subject-18.csv","legacy","Kafkaesque Koffka","3.2.6","mult","0","l","NA","NA","l","l","11554","NA","NA","14170","11554","2","2933","legacy","large","1024","2","48000","-16","experiment","9_7_mult_FNI.jpg","18","even","legacy","140517","NA","75707","NA","NA","2724","NA","2739","64153","140517","145455","16910","56807","2726","mousetracking operator preview effect","0","0","0","no","false","no","1680"
"neutral","undefined","1","undefined","undefined","white","no","legacy","legacy","legacy","0","relative","undefined","undefined","25","NA","0","0","0","0","0","0","0","41","41","0","15","0","no","04/24/19 10:45:21","A simple template for the mouse-tracking paradigm","yes","Experiment-FT.osexp","C:\Users\Kristen\Documents\opPreviewExperiment-master\procedure","no","mono","no","24","no","black","no","yes","1050","legacy","25","15","C:/Users/Kristen/Documents/opPreviewExperiment-master/procedure/subject-18.csv","legacy","Kafkaesque Koffka","3.2.6","mult","0","a","NA","NA","l","l","11554","NA","NA","14170","11554","2","2627","legacy","small","1024","2","48000","-16","experiment","5_3_mult_FI.jpg","18","even","legacy","145494","NA","75707","NA","NA","2724","NA","2739","64153","145494","149117","16910","56807","2726","mousetracking operator preview effect","0","0","0","no","false","no","1680"
"neutral","undefined","1","undefined","undefined","white","no","legacy","legacy","legacy","0","relative","undefined","undefined","26","NA","0","0","0","0","0","0","0","42","42","0","15","0","no","04/24/19 10:45:21","A simple template for the mouse-tracking paradigm","yes","Experiment-FT.osexp","C:\Users\Kristen\Documents\opPreviewExperiment-master\procedure","no","mono","no","24","no","black","no","yes","1050","legacy","26","15","C:/Users/Kristen/Documents/opPreviewExperiment-master/procedure/subject-18.csv","legacy","Kafkaesque Koffka","3.2.6","mult","0","l","NA","NA","l","l","11554","NA","NA","14170","11554","2","1046","legacy","small","1024","2","48000","-16","experiment","3_6_mult_true.jpg","18","even","legacy","149140","NA","75707","NA","NA","2724","NA","2739","64153","149140","151162","16910","56807","2726","mousetracking operator preview effect","0","0","0","no","true","no","1680"
"negative","undefined","1","undefined","undefined","white","no","legacy","legacy","legacy","0","relative","undefined","undefined","27","NA","0","0","0","0","0","0","0","43","43","0","15","0","no","04/24/19 10:45:21","A simple template for the mouse-tracking paradigm","yes","Experiment-FT.osexp","C:\Users\Kristen\Documents\opPreviewExperiment-master\procedure","no","mono","no","24","no","black","no","yes","1050","legacy","27","15","C:/Users/Kristen/Documents/opPreviewExperiment-master/procedure/subject-18.csv","legacy","Kafkaesque Koffka","3.2.6","mult","0","a","NA","NA","l","l","11554","NA","NA","14170","11554","2","1099","legacy","small","1024","2","48000","-16","experiment","2_7_mult_FNI.jpg","18","even","legacy","151192","NA","75707","NA","NA","2724","NA","2739","64153","151192","153435","16910","56807","2726","mousetracking operator preview effect","0","0","0","no","false","no","1680"
"negative","undefined","1","undefined","undefined","white","no","legacy","legacy","legacy","0","relative","undefined","undefined","28","NA","0","0","0","0","0","0","0","44","44","0","15","0","no","04/24/19 10:45:21","A simple template for the mouse-tracking paradigm","yes","Experiment-FT.osexp","C:\Users\Kristen\Documents\opPreviewExperiment-master\procedure","no","mono","no","24","no","black","no","yes","1050","legacy","28","15","C:/Users/Kristen/Documents/opPreviewExperiment-master/procedure/subject-18.csv","legacy","Kafkaesque Koffka","3.2.6","add","0","l","NA","NA","l","l","11554","NA","NA","14170","11554","2","1163","legacy","large","1024","2","48000","-16","experiment","6_8_add_true.jpg","18","even","legacy","153456","NA","75707","NA","NA","2724","NA","2739","64153","153456","155761","16910","56807","2726","mousetracking operator preview effect","0","0","0","no","true","no","1680"
"negative","undefined","1","undefined","undefined","white","no","legacy","legacy","legacy","0","relative","undefined","undefined","29","NA","0","0","0","0","0","0","0","45","45","0","15","0","no","04/24/19 10:45:21","A simple template for the mouse-tracking paradigm","yes","Experiment-FT.osexp","C:\Users\Kristen\Documents\opPreviewExperiment-master\procedure","no","mono","no","24","no","black","no","yes","1050","legacy","29","15","C:/Users/Kristen/Documents/opPreviewExperiment-master/procedure/subject-18.csv","legacy","Kafkaesque Koffka","3.2.6","add","0","l","NA","NA","l","l","11554","NA","NA","14170","11554","2","1139","legacy","small","1024","2","48000","-16","experiment","2_7_add_true.jpg","18","even","legacy","155787","NA","75707","NA","NA","2724","NA","2739","64153","155787","158090","16910","56807","2726","mousetracking operator preview effect","0","0","0","no","true","no","1680"
"negative","undefined","1","undefined","undefined","white","no","legacy","legacy","legacy","0","relative","undefined","undefined","30","NA","0","0","0","0","0","0","0","46","46","0","15","0","no","04/24/19 10:45:21","A simple template for the mouse-tracking paradigm","yes","Experiment-FT.osexp","C:\Users\Kristen\Documents\opPreviewExperiment-master\procedure","no","mono","no","24","no","black","no","yes","1050","legacy","30","15","C:/Users/Kristen/Documents/opPreviewExperiment-master/procedure/subject-18.csv","legacy","Kafkaesque Koffka","3.2.6","mult","0","l","NA","NA","l","l","11554","NA","NA","14170","11554","2","875","legacy","small","1024","2","48000","-16","experiment","2_7_mult_true.jpg","18","even","legacy","158104","NA","75707","NA","NA","2724","NA","2739","64153","158104","160130","16910","56807","2726","mousetracking operator preview effect","0","0","0","no","true","no","1680"
"neutral","undefined","0","undefined","undefined","white","no","legacy","legacy","legacy","0","relative","undefined","undefined","31","NA","0","0","0","0","0","0","0","47","47","0","15","0","no","04/24/19 10:45:21","A simple template for the mouse-tracking paradigm","yes","Experiment-FT.osexp","C:\Users\Kristen\Documents\opPreviewExperiment-master\procedure","no","mono","no","24","no","black","no","yes","1050","legacy","31","15","C:/Users/Kristen/Documents/opPreviewExperiment-master/procedure/subject-18.csv","legacy","Kafkaesque Koffka","3.2.6","add","0","l","NA","NA","l","l","11554","NA","NA","14170","11554","2","1526","legacy","small","1024","2","48000","-16","experiment","5_3_add_FNI.jpg","18","even","legacy","160151","NA","75707","NA","NA","2724","NA","2739","64153","160151","163665","16910","56807","2726","mousetracking operator preview effect","0","0","0","no","false","no","1680"
"negative","undefined","1","undefined","undefined","white","no","legacy","legacy","legacy","0","relative","undefined","undefined","32","NA","0","0","0","0","0","0","0","48","48","0","15","0","no","04/24/19 10:45:21","A simple template for the mouse-tracking paradigm","yes","Experiment-FT.osexp","C:\Users\Kristen\Documents\opPreviewExperiment-master\procedure","no","mono","no","24","no","black","no","yes","1050","legacy","32","15","C:/Users/Kristen/Documents/opPreviewExperiment-master/procedure/subject-18.csv","legacy","Kafkaesque Koffka","3.2.6","mult","0","a","NA","NA","l","l","11554","NA","NA","14170","11554","2","2161","legacy","small","1024","2","48000","-16","experiment","3_6_mult_FI.jpg","18","even","legacy","163704","NA","75707","NA","NA","2724","NA","2739","64153","163704","167030","16910","56807","2726","mousetracking operator preview effect","0","0","0","no","false","no","1680"
"negative","undefined","1","undefined","undefined","white","no","legacy","legacy","legacy","0","relative","undefined","undefined","33","NA","0","0","0","0","0","0","0","49","49","0","15","0","no","04/24/19 10:45:21","A simple template for the mouse-tracking paradigm","yes","Experiment-FT.osexp","C:\Users\Kristen\Documents\opPreviewExperiment-master\procedure","no","mono","no","24","no","black","no","yes","1050","legacy","33","15","C:/Users/Kristen/Documents/opPreviewExperiment-master/procedure/subject-18.csv","legacy","Kafkaesque Koffka","3.2.6","mult","0","a","NA","NA","l","l","11554","NA","NA","14170","11554","2","1053","legacy","small","1024","2","48000","-16","experiment","8_2_mult_FNI.jpg","18","even","legacy","167053","NA","75707","NA","NA","2724","NA","2739","64153","167053","169265","16910","56807","2726","mousetracking operator preview effect","0","0","0","no","false","no","1680"
"negative","undefined","1","undefined","undefined","white","no","legacy","legacy","legacy","0","relative","undefined","undefined","34","NA","0","0","0","0","0","0","0","50","50","0","15","0","no","04/24/19 10:45:21","A simple template for the mouse-tracking paradigm","yes","Experiment-FT.osexp","C:\Users\Kristen\Documents\opPreviewExperiment-master\procedure","no","mono","no","24","no","black","no","yes","1050","legacy","34","15","C:/Users/Kristen/Documents/opPreviewExperiment-master/procedure/subject-18.csv","legacy","Kafkaesque Koffka","3.2.6","mult","0","l","NA","NA","l","l","11554","NA","NA","14170","11554","2","1458","legacy","large","1024","2","48000","-16","experiment","9_7_mult_true.jpg","18","even","legacy","169285","NA","75707","NA","NA","2724","NA","2739","64153","169285","171913","16910","56807","2726","mousetracking operator preview effect","0","0","0","no","true","no","1680"
"neutral","undefined","1","undefined","undefined","white","no","legacy","legacy","legacy","0","relative","undefined","undefined","35","NA","0","0","0","0","0","0","0","51","51","0","15","0","no","04/24/19 10:45:21","A simple template for the mouse-tracking paradigm","yes","Experiment-FT.osexp","C:\Users\Kristen\Documents\opPreviewExperiment-master\procedure","no","mono","no","24","no","black","no","yes","1050","legacy","35","15","C:/Users/Kristen/Documents/opPreviewExperiment-master/procedure/subject-18.csv","legacy","Kafkaesque Koffka","3.2.6","mult","0","a","NA","NA","l","l","11554","NA","NA","14170","11554","2","869","legacy","small","1024","2","48000","-16","experiment","2_7_mult_FNI.jpg","18","even","legacy","171928","NA","75707","NA","NA","2724","NA","2739","64153","171928","173768","16910","56807","2726","mousetracking operator preview effect","0","0","0","no","false","no","1680"
"neutral","undefined","1","undefined","undefined","white","no","legacy","legacy","legacy","0","relative","undefined","undefined","36","NA","0","0","0","0","0","0","0","52","52","0","15","0","no","04/24/19 10:45:21","A simple template for the mouse-tracking paradigm","yes","Experiment-FT.osexp","C:\Users\Kristen\Documents\opPreviewExperiment-master\procedure","no","mono","no","24","no","black","no","yes","1050","legacy","36","15","C:/Users/Kristen/Documents/opPreviewExperiment-master/procedure/subject-18.csv","legacy","Kafkaesque Koffka","3.2.6","add","0","l","NA","NA","l","l","11554","NA","NA","14170","11554","2","2026","legacy","large","1024","2","48000","-16","experiment","4_9_add_true.jpg","18","even","legacy","173790","NA","75707","NA","NA","2724","NA","2739","64153","173790","176796","16910","56807","2726","mousetracking operator preview effect","0","0","0","no","true","no","1680"
"negative","undefined","1","undefined","undefined","white","no","legacy","legacy","legacy","0","relative","undefined","undefined","37","NA","0","0","0","0","0","0","0","53","53","0","15","0","no","04/24/19 10:45:21","A simple template for the mouse-tracking paradigm","yes","Experiment-FT.osexp","C:\Users\Kristen\Documents\opPreviewExperiment-master\procedure","no","mono","no","24","no","black","no","yes","1050","legacy","37","15","C:/Users/Kristen/Documents/opPreviewExperiment-master/procedure/subject-18.csv","legacy","Kafkaesque Koffka","3.2.6","mult","0","a","NA","NA","l","l","11554","NA","NA","14170","11554","2","1178","legacy","large","1024","2","48000","-16","experiment","6_8_mult_FI.jpg","18","even","legacy","176823","NA","75707","NA","NA","2724","NA","2739","64153","176823","179132","16910","56807","2726","mousetracking operator preview effect","0","0","0","no","false","no","1680"
"neutral","undefined","1","undefined","undefined","white","no","legacy","legacy","legacy","0","relative","undefined","undefined","38","NA","0","0","0","0","0","0","0","54","54","0","15","0","no","04/24/19 10:45:21","A simple template for the mouse-tracking paradigm","yes","Experiment-FT.osexp","C:\Users\Kristen\Documents\opPreviewExperiment-master\procedure","no","mono","no","24","no","black","no","yes","1050","legacy","38","15","C:/Users/Kristen/Documents/opPreviewExperiment-master/procedure/subject-18.csv","legacy","Kafkaesque Koffka","3.2.6","mult","0","l","NA","NA","l","l","11554","NA","NA","14170","11554","2","970","legacy","large","1024","2","48000","-16","experiment","9_7_mult_true.jpg","18","even","legacy","179153","NA","75707","NA","NA","2724","NA","2739","64153","179153","181106","16910","56807","2726","mousetracking operator preview effect","0","0","0","no","true","no","1680"
"negative","undefined","1","undefined","undefined","white","no","legacy","legacy","legacy","0","relative","undefined","undefined","39","NA","0","0","0","0","0","0","0","55","55","0","15","0","no","04/24/19 10:45:21","A simple template for the mouse-tracking paradigm","yes","Experiment-FT.osexp","C:\Users\Kristen\Documents\opPreviewExperiment-master\procedure","no","mono","no","24","no","black","no","yes","1050","legacy","39","15","C:/Users/Kristen/Documents/opPreviewExperiment-master/procedure/subject-18.csv","legacy","Kafkaesque Koffka","3.2.6","add","0","a","NA","NA","l","l","11554","NA","NA","14170","11554","2","1171","legacy","large","1024","2","48000","-16","experiment","4_9_add_FI.jpg","18","even","legacy","181120","NA","75707","NA","NA","2724","NA","2739","64153","181120","183466","16910","56807","2726","mousetracking operator preview effect","0","0","0","no","false","no","1680"
"negative","undefined","1","undefined","undefined","white","no","legacy","legacy","legacy","0","relative","undefined","undefined","40","NA","0","0","0","0","0","0","0","56","56","0","15","0","no","04/24/19 10:45:21","A simple template for the mouse-tracking paradigm","yes","Experiment-FT.osexp","C:\Users\Kristen\Documents\opPreviewExperiment-master\procedure","no","mono","no","24","no","black","no","yes","1050","legacy","40","15","C:/Users/Kristen/Documents/opPreviewExperiment-master/procedure/subject-18.csv","legacy","Kafkaesque Koffka","3.2.6","add","0","a","NA","NA","l","l","11554","NA","NA","14170","11554","2","1008","legacy","large","1024","2","48000","-16","experiment","6_8_add_FNI.jpg","18","even","legacy","183488","NA","75707","NA","NA","2724","NA","2739","64153","183488","185649","16910","56807","2726","mousetracking operator preview effect","0","0","0","no","false","no","1680"
"negative","undefined","1","undefined","undefined","white","no","legacy","legacy","legacy","0","relative","undefined","undefined","41","NA","0","0","0","0","0","0","0","57","57","0","15","0","no","04/24/19 10:45:21","A simple template for the mouse-tracking paradigm","yes","Experiment-FT.osexp","C:\Users\Kristen\Documents\opPreviewExperiment-master\procedure","no","mono","no","24","no","black","no","yes","1050","legacy","41","15","C:/Users/Kristen/Documents/opPreviewExperiment-master/procedure/subject-18.csv","legacy","Kafkaesque Koffka","3.2.6","mult","0","l","NA","NA","l","l","11554","NA","NA","14170","11554","2","1082","legacy","small","1024","2","48000","-16","experiment","2_7_mult_true.jpg","18","even","legacy","185674","NA","75707","NA","NA","2724","NA","2739","64153","185674","187876","16910","56807","2726","mousetracking operator preview effect","0","0","0","no","true","no","1680"
"neutral","undefined","1","undefined","undefined","white","no","legacy","legacy","legacy","0","relative","undefined","undefined","42","NA","0","0","0","0","0","0","0","58","58","0","15","0","no","04/24/19 10:45:21","A simple template for the mouse-tracking paradigm","yes","Experiment-FT.osexp","C:\Users\Kristen\Documents\opPreviewExperiment-master\procedure","no","mono","no","24","no","black","no","yes","1050","legacy","42","15","C:/Users/Kristen/Documents/opPreviewExperiment-master/procedure/subject-18.csv","legacy","Kafkaesque Koffka","3.2.6","mult","0","a","NA","NA","l","l","11554","NA","NA","14170","11554","2","1087","legacy","small","1024","2","48000","-16","experiment","5_3_mult_FNI.jpg","18","even","legacy","187898","NA","75707","NA","NA","2724","NA","2739","64153","187898","189990","16910","56807","2726","mousetracking operator preview effect","0","0","0","no","false","no","1680"
"negative","undefined","1","undefined","undefined","white","no","legacy","legacy","legacy","0","relative","undefined","undefined","43","NA","0","0","0","0","0","0","0","59","59","0","15","0","no","04/24/19 10:45:21","A simple template for the mouse-tracking paradigm","yes","Experiment-FT.osexp","C:\Users\Kristen\Documents\opPreviewExperiment-master\procedure","no","mono","no","24","no","black","no","yes","1050","legacy","43","15","C:/Users/Kristen/Documents/opPreviewExperiment-master/procedure/subject-18.csv","legacy","Kafkaesque Koffka","3.2.6","add","0","a","NA","NA","l","l","11554","NA","NA","14170","11554","2","1099","legacy","small","1024","2","48000","-16","experiment","3_6_add_FI.jpg","18","even","legacy","190023","NA","75707","NA","NA","2724","NA","2739","64153","190023","192295","16910","56807","2726","mousetracking operator preview effect","0","0","0","no","false","no","1680"
"neutral","undefined","1","undefined","undefined","white","no","legacy","legacy","legacy","0","relative","undefined","undefined","44","NA","0","0","0","0","0","0","0","60","60","0","15","0","no","04/24/19 10:45:21","A simple template for the mouse-tracking paradigm","yes","Experiment-FT.osexp","C:\Users\Kristen\Documents\opPreviewExperiment-master\procedure","no","mono","no","24","no","black","no","yes","1050","legacy","44","15","C:/Users/Kristen/Documents/opPreviewExperiment-master/procedure/subject-18.csv","legacy","Kafkaesque Koffka","3.2.6","mult","0","l","NA","NA","l","l","11554","NA","NA","14170","11554","2","858","legacy","small","1024","2","48000","-16","experiment","5_3_mult_true.jpg","18","even","legacy","192316","NA","75707","NA","NA","2724","NA","2739","64153","192316","194150","16910","56807","2726","mousetracking operator preview effect","0","0","0","no","true","no","1680"
"neutral","undefined","1","undefined","undefined","white","no","legacy","legacy","legacy","0","relative","undefined","undefined","45","NA","0","0","0","0","0","0","0","61","61","0","15","0","no","04/24/19 10:45:21","A simple template for the mouse-tracking paradigm","yes","Experiment-FT.osexp","C:\Users\Kristen\Documents\opPreviewExperiment-master\procedure","no","mono","no","24","no","black","no","yes","1050","legacy","45","15","C:/Users/Kristen/Documents/opPreviewExperiment-master/procedure/subject-18.csv","legacy","Kafkaesque Koffka","3.2.6","add","0","l","NA","NA","l","l","11554","NA","NA","14170","11554","2","1057","legacy","small","1024","2","48000","-16","experiment","2_7_add_true.jpg","18","even","legacy","194181","NA","75707","NA","NA","2724","NA","2739","64153","194181","196214","16910","56807","2726","mousetracking operator preview effect","0","0","0","no","true","no","1680"
"neutral","undefined","1","undefined","undefined","white","no","legacy","legacy","legacy","0","relative","undefined","undefined","46","NA","0","0","0","0","0","0","0","62","62","0","15","0","no","04/24/19 10:45:21","A simple template for the mouse-tracking paradigm","yes","Experiment-FT.osexp","C:\Users\Kristen\Documents\opPreviewExperiment-master\procedure","no","mono","no","24","no","black","no","yes","1050","legacy","46","15","C:/Users/Kristen/Documents/opPreviewExperiment-master/procedure/subject-18.csv","legacy","Kafkaesque Koffka","3.2.6","mult","0","l","NA","NA","l","l","11554","NA","NA","14170","11554","2","788","legacy","large","1024","2","48000","-16","experiment","4_9_mult_true.jpg","18","even","legacy","196230","NA","75707","NA","NA","2724","NA","2739","64153","196230","198004","16910","56807","2726","mousetracking operator preview effect","0","0","0","no","true","no","1680"
"negative","undefined","1","undefined","undefined","white","no","legacy","legacy","legacy","0","relative","undefined","undefined","47","NA","0","0","0","0","0","0","0","63","63","0","15","0","no","04/24/19 10:45:21","A simple template for the mouse-tracking paradigm","yes","Experiment-FT.osexp","C:\Users\Kristen\Documents\opPreviewExperiment-master\procedure","no","mono","no","24","no","black","no","yes","1050","legacy","47","15","C:/Users/Kristen/Documents/opPreviewExperiment-master/procedure/subject-18.csv","legacy","Kafkaesque Koffka","3.2.6","mult","0","a","NA","NA","l","l","11554","NA","NA","14170","11554","2","916","legacy","large","1024","2","48000","-16","experiment","4_9_mult_FI.jpg","18","even","legacy","198025","NA","75707","NA","NA","2724","NA","2739","64153","198025","200100","16910","56807","2726","mousetracking operator preview effect","0","0","0","no","false","no","1680"
"negative","undefined","1","undefined","undefined","white","no","legacy","legacy","legacy","0","relative","undefined","undefined","48","NA","0","0","0","0","0","0","0","64","64","0","15","0","no","04/24/19 10:45:21","A simple template for the mouse-tracking paradigm","yes","Experiment-FT.osexp","C:\Users\Kristen\Documents\opPreviewExperiment-master\procedure","no","mono","no","24","no","black","no","yes","1050","legacy","48","15","C:/Users/Kristen/Documents/opPreviewExperiment-master/procedure/subject-18.csv","legacy","Kafkaesque Koffka","3.2.6","mult","0","l","NA","NA","l","l","11554","NA","NA","14170","11554","2","964","legacy","large","1024","2","48000","-16","experiment","8_4_mult_true.jpg","18","even","legacy","200130","NA","75707","NA","NA","2724","NA","2739","64153","200130","202251","16910","56807","2726","mousetracking operator preview effect","0","0","0","no","true","no","1680"
"neutral","undefined","0","undefined","undefined","white","no","legacy","legacy","legacy","0","relative","undefined","undefined","49","NA","0","0","0","0","0","0","0","65","65","0","15","0","no","04/24/19 10:45:21","A simple template for the mouse-tracking paradigm","yes","Experiment-FT.osexp","C:\Users\Kristen\Documents\opPreviewExperiment-master\procedure","no","mono","no","24","no","black","no","yes","1050","legacy","49","15","C:/Users/Kristen/Documents/opPreviewExperiment-master/procedure/subject-18.csv","legacy","Kafkaesque Koffka","3.2.6","add","0","a","NA","NA","l","l","11554","NA","NA","14170","11554","2","850","legacy","large","1024","2","48000","-16","experiment","4_9_add_true.jpg","18","even","legacy","202272","NA","75707","NA","NA","2724","NA","2739","64153","202272","205126","16910","56807","2726","mousetracking operator preview effect","0","0","0","no","true","no","1680"
"neutral","undefined","1","undefined","undefined","white","no","legacy","legacy","legacy","0","relative","undefined","undefined","50","NA","0","0","0","0","0","0","0","66","66","0","15","0","no","04/24/19 10:45:21","A simple template for the mouse-tracking paradigm","yes","Experiment-FT.osexp","C:\Users\Kristen\Documents\opPreviewExperiment-master\procedure","no","mono","no","24","no","black","no","yes","1050","legacy","50","15","C:/Users/Kristen/Documents/opPreviewExperiment-master/procedure/subject-18.csv","legacy","Kafkaesque Koffka","3.2.6","add","0","a","NA","NA","l","l","11554","NA","NA","14170","11554","2","1143","legacy","small","1024","2","48000","-16","experiment","3_6_add_FI.jpg","18","even","legacy","205165","NA","75707","NA","NA","2724","NA","2739","64153","205166","207283","16910","56807","2726","mousetracking operator preview effect","0","0","0","no","false","no","1680"
"neutral","undefined","1","undefined","undefined","white","no","legacy","legacy","legacy","0","relative","undefined","undefined","51","NA","0","0","0","0","0","0","0","67","67","0","15","0","no","04/24/19 10:45:21","A simple template for the mouse-tracking paradigm","yes","Experiment-FT.osexp","C:\Users\Kristen\Documents\opPreviewExperiment-master\procedure","no","mono","no","24","no","black","no","yes","1050","legacy","51","15","C:/Users/Kristen/Documents/opPreviewExperiment-master/procedure/subject-18.csv","legacy","Kafkaesque Koffka","3.2.6","mult","0","l","NA","NA","l","l","11554","NA","NA","14170","11554","2","833","legacy","small","1024","2","48000","-16","experiment","2_7_mult_true.jpg","18","even","legacy","207304","NA","75707","NA","NA","2724","NA","2739","64153","207304","209118","16910","56807","2726","mousetracking operator preview effect","0","0","0","no","true","no","1680"
"neutral","undefined","1","undefined","undefined","white","no","legacy","legacy","legacy","0","relative","undefined","undefined","52","NA","0","0","0","0","0","0","0","68","68","0","15","0","no","04/24/19 10:45:21","A simple template for the mouse-tracking paradigm","yes","Experiment-FT.osexp","C:\Users\Kristen\Documents\opPreviewExperiment-master\procedure","no","mono","no","24","no","black","no","yes","1050","legacy","52","15","C:/Users/Kristen/Documents/opPreviewExperiment-master/procedure/subject-18.csv","legacy","Kafkaesque Koffka","3.2.6","mult","0","a","NA","NA","l","l","11554","NA","NA","14170","11554","2","1424","legacy","large","1024","2","48000","-16","experiment","9_7_mult_FI.jpg","18","even","legacy","209139","NA","75707","NA","NA","2724","NA","2739","64153","209139","211559","16910","56807","2726","mousetracking operator preview effect","0","0","0","no","false","no","1680"
"negative","undefined","1","undefined","undefined","white","no","legacy","legacy","legacy","0","relative","undefined","undefined","53","NA","0","0","0","0","0","0","0","69","69","0","15","0","no","04/24/19 10:45:21","A simple template for the mouse-tracking paradigm","yes","Experiment-FT.osexp","C:\Users\Kristen\Documents\opPreviewExperiment-master\procedure","no","mono","no","24","no","black","no","yes","1050","legacy","53","15","C:/Users/Kristen/Documents/opPreviewExperiment-master/procedure/subject-18.csv","legacy","Kafkaesque Koffka","3.2.6","mult","0","l","NA","NA","l","l","11554","NA","NA","14170","11554","2","819","legacy","large","1024","2","48000","-16","experiment","4_9_mult_true.jpg","18","even","legacy","211580","NA","75707","NA","NA","2724","NA","2739","64153","211580","213543","16910","56807","2726","mousetracking operator preview effect","0","0","0","no","true","no","1680"
"negative","undefined","1","undefined","undefined","white","no","legacy","legacy","legacy","0","relative","undefined","undefined","54","NA","0","0","0","0","0","0","0","70","70","0","15","0","no","04/24/19 10:45:21","A simple template for the mouse-tracking paradigm","yes","Experiment-FT.osexp","C:\Users\Kristen\Documents\opPreviewExperiment-master\procedure","no","mono","no","24","no","black","no","yes","1050","legacy","54","15","C:/Users/Kristen/Documents/opPreviewExperiment-master/procedure/subject-18.csv","legacy","Kafkaesque Koffka","3.2.6","mult","0","l","NA","NA","l","l","11554","NA","NA","14170","11554","2","974","legacy","large","1024","2","48000","-16","experiment","8_4_mult_true.jpg","18","even","legacy","213571","NA","75707","NA","NA","2724","NA","2739","64153","213571","215699","16910","56807","2726","mousetracking operator preview effect","0","0","0","no","true","no","1680"
"neutral","undefined","1","undefined","undefined","white","no","legacy","legacy","legacy","0","relative","undefined","undefined","55","NA","0","0","0","0","0","0","0","71","71","0","15","0","no","04/24/19 10:45:21","A simple template for the mouse-tracking paradigm","yes","Experiment-FT.osexp","C:\Users\Kristen\Documents\opPreviewExperiment-master\procedure","no","mono","no","24","no","black","no","yes","1050","legacy","55","15","C:/Users/Kristen/Documents/opPreviewExperiment-master/procedure/subject-18.csv","legacy","Kafkaesque Koffka","3.2.6","add","0","l","NA","NA","l","l","11554","NA","NA","14170","11554","2","952","legacy","small","1024","2","48000","-16","experiment","3_6_add_true.jpg","18","even","legacy","215730","NA","75707","NA","NA","2724","NA","2739","64153","215730","217689","16910","56807","2726","mousetracking operator preview effect","0","0","0","no","true","no","1680"
"negative","undefined","1","undefined","undefined","white","no","legacy","legacy","legacy","0","relative","undefined","undefined","56","NA","0","0","0","0","0","0","0","72","72","0","15","0","no","04/24/19 10:45:21","A simple template for the mouse-tracking paradigm","yes","Experiment-FT.osexp","C:\Users\Kristen\Documents\opPreviewExperiment-master\procedure","no","mono","no","24","no","black","no","yes","1050","legacy","56","15","C:/Users/Kristen/Documents/opPreviewExperiment-master/procedure/subject-18.csv","legacy","Kafkaesque Koffka","3.2.6","mult","0","l","NA","NA","l","l","11554","NA","NA","14170","11554","2","1183","legacy","small","1024","2","48000","-16","experiment","5_3_mult_true.jpg","18","even","legacy","217712","NA","75707","NA","NA","2724","NA","2739","64153","217712","220038","16910","56807","2726","mousetracking operator preview effect","0","0","0","no","true","no","1680"
"negative","undefined","1","undefined","undefined","white","no","legacy","legacy","legacy","0","relative","undefined","undefined","57","NA","0","0","0","0","0","0","0","73","73","0","15","0","no","04/24/19 10:45:21","A simple template for the mouse-tracking paradigm","yes","Experiment-FT.osexp","C:\Users\Kristen\Documents\opPreviewExperiment-master\procedure","no","mono","no","24","no","black","no","yes","1050","legacy","57","15","C:/Users/Kristen/Documents/opPreviewExperiment-master/procedure/subject-18.csv","legacy","Kafkaesque Koffka","3.2.6","add","0","a","NA","NA","l","l","11554","NA","NA","14170","11554","2","1438","legacy","large","1024","2","48000","-16","experiment","8_4_add_FI.jpg","18","even","legacy","220068","NA","75707","NA","NA","2724","NA","2739","64153","220068","222644","16910","56807","2726","mousetracking operator preview effect","0","0","0","no","false","no","1680"
"negative","undefined","1","undefined","undefined","white","no","legacy","legacy","legacy","0","relative","undefined","undefined","58","NA","0","0","0","0","0","0","0","74","74","0","15","0","no","04/24/19 10:45:21","A simple template for the mouse-tracking paradigm","yes","Experiment-FT.osexp","C:\Users\Kristen\Documents\opPreviewExperiment-master\procedure","no","mono","no","24","no","black","no","yes","1050","legacy","58","15","C:/Users/Kristen/Documents/opPreviewExperiment-master/procedure/subject-18.csv","legacy","Kafkaesque Koffka","3.2.6","add","0","a","NA","NA","l","l","11554","NA","NA","14170","11554","2","1227","legacy","small","1024","2","48000","-16","experiment","8_2_add_FI.jpg","18","even","legacy","222666","NA","75707","NA","NA","2724","NA","2739","64153","222666","225065","16910","56807","2726","mousetracking operator preview effect","0","0","0","no","false","no","1680"
"neutral","undefined","1","undefined","undefined","white","no","legacy","legacy","legacy","0","relative","undefined","undefined","59","NA","0","0","0","0","0","0","0","75","75","0","15","0","no","04/24/19 10:45:21","A simple template for the mouse-tracking paradigm","yes","Experiment-FT.osexp","C:\Users\Kristen\Documents\opPreviewExperiment-master\procedure","no","mono","no","24","no","black","no","yes","1050","legacy","59","15","C:/Users/Kristen/Documents/opPreviewExperiment-master/procedure/subject-18.csv","legacy","Kafkaesque Koffka","3.2.6","mult","0","l","NA","NA","l","l","11554","NA","NA","14170","11554","2","1144","legacy","large","1024","2","48000","-16","experiment","6_8_mult_true.jpg","18","even","legacy","225086","NA","75707","NA","NA","2724","NA","2739","64153","225086","227219","16910","56807","2726","mousetracking operator preview effect","0","0","0","no","true","no","1680"
"neutral","undefined","1","undefined","undefined","white","no","legacy","legacy","legacy","0","relative","undefined","undefined","60","NA","0","0","0","0","0","0","0","76","76","0","15","0","no","04/24/19 10:45:21","A simple template for the mouse-tracking paradigm","yes","Experiment-FT.osexp","C:\Users\Kristen\Documents\opPreviewExperiment-master\procedure","no","mono","no","24","no","black","no","yes","1050","legacy","60","15","C:/Users/Kristen/Documents/opPreviewExperiment-master/procedure/subject-18.csv","legacy","Kafkaesque Koffka","3.2.6","add","0","l","NA","NA","l","l","11554","NA","NA","14170","11554","2","824","legacy","large","1024","2","48000","-16","experiment","8_4_add_true.jpg","18","even","legacy","227240","NA","75707","NA","NA","2724","NA","2739","64153","227240","229060","16910","56807","2726","mousetracking operator preview effect","0","0","0","no","true","no","1680"
"negative","undefined","1","undefined","undefined","white","no","legacy","legacy","legacy","0","relative","undefined","undefined","61","NA","0","0","0","0","0","0","0","77","77","0","15","0","no","04/24/19 10:45:21","A simple template for the mouse-tracking paradigm","yes","Experiment-FT.osexp","C:\Users\Kristen\Documents\opPreviewExperiment-master\procedure","no","mono","no","24","no","black","no","yes","1050","legacy","61","15","C:/Users/Kristen/Documents/opPreviewExperiment-master/procedure/subject-18.csv","legacy","Kafkaesque Koffka","3.2.6","add","0","l","NA","NA","l","l","11554","NA","NA","14170","11554","2","862","legacy","large","1024","2","48000","-16","experiment","8_4_add_true.jpg","18","even","legacy","229089","NA","75707","NA","NA","2724","NA","2739","64153","229089","231101","16910","56807","2726","mousetracking operator preview effect","0","0","0","no","true","no","1680"
"negative","undefined","1","undefined","undefined","white","no","legacy","legacy","legacy","0","relative","undefined","undefined","62","NA","0","0","0","0","0","0","0","78","78","0","15","0","no","04/24/19 10:45:21","A simple template for the mouse-tracking paradigm","yes","Experiment-FT.osexp","C:\Users\Kristen\Documents\opPreviewExperiment-master\procedure","no","mono","no","24","no","black","no","yes","1050","legacy","62","15","C:/Users/Kristen/Documents/opPreviewExperiment-master/procedure/subject-18.csv","legacy","Kafkaesque Koffka","3.2.6","mult","0","a","NA","NA","l","l","11554","NA","NA","14170","11554","2","1057","legacy","large","1024","2","48000","-16","experiment","9_7_mult_FNI.jpg","18","even","legacy","231118","NA","75707","NA","NA","2724","NA","2739","64153","231119","233334","16910","56807","2726","mousetracking operator preview effect","0","0","0","no","false","no","1680"
"negative","undefined","1","undefined","undefined","white","no","legacy","legacy","legacy","0","relative","undefined","undefined","63","NA","0","0","0","0","0","0","0","79","79","0","15","0","no","04/24/19 10:45:21","A simple template for the mouse-tracking paradigm","yes","Experiment-FT.osexp","C:\Users\Kristen\Documents\opPreviewExperiment-master\procedure","no","mono","no","24","no","black","no","yes","1050","legacy","63","15","C:/Users/Kristen/Documents/opPreviewExperiment-master/procedure/subject-18.csv","legacy","Kafkaesque Koffka","3.2.6","mult","0","a","NA","NA","l","l","11554","NA","NA","14170","11554","2","1112","legacy","small","1024","2","48000","-16","experiment","8_2_mult_FI.jpg","18","even","legacy","233356","NA","75707","NA","NA","2724","NA","2739","64153","233357","235641","16910","56807","2726","mousetracking operator preview effect","0","0","0","no","false","no","1680"
"neutral","undefined","1","undefined","undefined","white","no","legacy","legacy","legacy","0","relative","undefined","undefined","64","NA","0","0","0","0","0","0","0","80","80","0","15","0","no","04/24/19 10:45:21","A simple template for the mouse-tracking paradigm","yes","Experiment-FT.osexp","C:\Users\Kristen\Documents\opPreviewExperiment-master\procedure","no","mono","no","24","no","black","no","yes","1050","legacy","64","15","C:/Users/Kristen/Documents/opPreviewExperiment-master/procedure/subject-18.csv","legacy","Kafkaesque Koffka","3.2.6","mult","0","a","NA","NA","l","l","11554","NA","NA","14170","11554","2","1490","legacy","large","1024","2","48000","-16","experiment","8_4_mult_FNI.jpg","18","even","legacy","235669","NA","75707","NA","NA","2724","NA","2739","64153","235669","238159","16910","56807","2726","mousetracking operator preview effect","0","0","0","no","false","no","1680"
"negative","undefined","1","undefined","undefined","white","no","legacy","legacy","legacy","0","relative","undefined","undefined","65","NA","0","0","0","0","0","0","0","81","81","0","15","0","no","04/24/19 10:45:21","A simple template for the mouse-tracking paradigm","yes","Experiment-FT.osexp","C:\Users\Kristen\Documents\opPreviewExperiment-master\procedure","no","mono","no","24","no","black","no","yes","1050","legacy","65","15","C:/Users/Kristen/Documents/opPreviewExperiment-master/procedure/subject-18.csv","legacy","Kafkaesque Koffka","3.2.6","mult","0","l","NA","NA","l","l","11554","NA","NA","14170","11554","2","1320","legacy","small","1024","2","48000","-16","experiment","3_6_mult_true.jpg","18","even","legacy","238180","NA","75707","NA","NA","2724","NA","2739","64153","238180","240653","16910","56807","2726","mousetracking operator preview effect","0","0","0","no","true","no","1680"
"negative","undefined","1","undefined","undefined","white","no","legacy","legacy","legacy","0","relative","undefined","undefined","66","NA","0","0","0","0","0","0","0","82","82","0","15","0","no","04/24/19 10:45:21","A simple template for the mouse-tracking paradigm","yes","Experiment-FT.osexp","C:\Users\Kristen\Documents\opPreviewExperiment-master\procedure","no","mono","no","24","no","black","no","yes","1050","legacy","66","15","C:/Users/Kristen/Documents/opPreviewExperiment-master/procedure/subject-18.csv","legacy","Kafkaesque Koffka","3.2.6","mult","0","l","NA","NA","l","l","11554","NA","NA","14170","11554","2","900","legacy","large","1024","2","48000","-16","experiment","6_8_mult_true.jpg","18","even","legacy","240681","NA","75707","NA","NA","2724","NA","2739","64153","240682","242730","16910","56807","2726","mousetracking operator preview effect","0","0","0","no","true","no","1680"
"neutral","undefined","1","undefined","undefined","white","no","legacy","legacy","legacy","0","relative","undefined","undefined","67","NA","0","0","0","0","0","0","0","83","83","0","15","0","no","04/24/19 10:45:21","A simple template for the mouse-tracking paradigm","yes","Experiment-FT.osexp","C:\Users\Kristen\Documents\opPreviewExperiment-master\procedure","no","mono","no","24","no","black","no","yes","1050","legacy","67","15","C:/Users/Kristen/Documents/opPreviewExperiment-master/procedure/subject-18.csv","legacy","Kafkaesque Koffka","3.2.6","mult","0","l","NA","NA","l","l","11554","NA","NA","14170","11554","2","998","legacy","small","1024","2","48000","-16","experiment","2_7_mult_true.jpg","18","even","legacy","242745","NA","75707","NA","NA","2724","NA","2739","64153","242745","244725","16910","56807","2726","mousetracking operator preview effect","0","0","0","no","true","no","1680"
"neutral","undefined","1","undefined","undefined","white","no","legacy","legacy","legacy","0","relative","undefined","undefined","68","NA","0","0","0","0","0","0","0","84","84","0","15","0","no","04/24/19 10:45:21","A simple template for the mouse-tracking paradigm","yes","Experiment-FT.osexp","C:\Users\Kristen\Documents\opPreviewExperiment-master\procedure","no","mono","no","24","no","black","no","yes","1050","legacy","68","15","C:/Users/Kristen/Documents/opPreviewExperiment-master/procedure/subject-18.csv","legacy","Kafkaesque Koffka","3.2.6","mult","0","l","NA","NA","l","l","11554","NA","NA","14170","11554","2","782","legacy","large","1024","2","48000","-16","experiment","6_8_mult_true.jpg","18","even","legacy","244746","NA","75707","NA","NA","2724","NA","2739","64153","244746","246500","16910","56807","2726","mousetracking operator preview effect","0","0","0","no","true","no","1680"
"negative","undefined","0","undefined","undefined","white","no","legacy","legacy","legacy","0","relative","undefined","undefined","69","NA","0","0","0","0","0","0","0","85","85","0","15","0","no","04/24/19 10:45:21","A simple template for the mouse-tracking paradigm","yes","Experiment-FT.osexp","C:\Users\Kristen\Documents\opPreviewExperiment-master\procedure","no","mono","no","24","no","black","no","yes","1050","legacy","69","15","C:/Users/Kristen/Documents/opPreviewExperiment-master/procedure/subject-18.csv","legacy","Kafkaesque Koffka","3.2.6","add","0","a","NA","NA","l","l","11554","NA","NA","14170","11554","2","871","legacy","large","1024","2","48000","-16","experiment","4_9_add_true.jpg","18","even","legacy","246527","NA","75707","NA","NA","2724","NA","2739","64153","246527","249559","16910","56807","2726","mousetracking operator preview effect","0","0","0","no","true","no","1680"
"negative","undefined","1","undefined","undefined","white","no","legacy","legacy","legacy","0","relative","undefined","undefined","70","NA","0","0","0","0","0","0","0","86","86","0","15","0","no","04/24/19 10:45:21","A simple template for the mouse-tracking paradigm","yes","Experiment-FT.osexp","C:\Users\Kristen\Documents\opPreviewExperiment-master\procedure","no","mono","no","24","no","black","no","yes","1050","legacy","70","15","C:/Users/Kristen/Documents/opPreviewExperiment-master/procedure/subject-18.csv","legacy","Kafkaesque Koffka","3.2.6","add","0","l","NA","NA","l","l","11554","NA","NA","14170","11554","2","744","legacy","small","1024","2","48000","-16","experiment","8_2_add_true.jpg","18","even","legacy","249592","NA","75707","NA","NA","2724","NA","2739","64153","249592","251485","16910","56807","2726","mousetracking operator preview effect","0","0","0","no","true","no","1680"
"negative","undefined","1","undefined","undefined","white","no","legacy","legacy","legacy","0","relative","undefined","undefined","71","NA","0","0","0","0","0","0","0","87","87","0","15","0","no","04/24/19 10:45:21","A simple template for the mouse-tracking paradigm","yes","Experiment-FT.osexp","C:\Users\Kristen\Documents\opPreviewExperiment-master\procedure","no","mono","no","24","no","black","no","yes","1050","legacy","71","15","C:/Users/Kristen/Documents/opPreviewExperiment-master/procedure/subject-18.csv","legacy","Kafkaesque Koffka","3.2.6","mult","0","a","NA","NA","l","l","11554","NA","NA","14170","11554","2","813","legacy","small","1024","2","48000","-16","experiment","5_3_mult_FI.jpg","18","even","legacy","251506","NA","75707","NA","NA","2724","NA","2739","64153","251506","253467","16910","56807","2726","mousetracking operator preview effect","0","0","0","no","false","no","1680"
"neutral","undefined","1","undefined","undefined","white","no","legacy","legacy","legacy","0","relative","undefined","undefined","72","NA","0","0","0","0","0","0","0","88","88","0","15","0","no","04/24/19 10:45:21","A simple template for the mouse-tracking paradigm","yes","Experiment-FT.osexp","C:\Users\Kristen\Documents\opPreviewExperiment-master\procedure","no","mono","no","24","no","black","no","yes","1050","legacy","72","15","C:/Users/Kristen/Documents/opPreviewExperiment-master/procedure/subject-18.csv","legacy","Kafkaesque Koffka","3.2.6","mult","0","l","NA","NA","l","l","11554","NA","NA","14170","11554","2","976","legacy","large","1024","2","48000","-16","experiment","8_4_mult_true.jpg","18","even","legacy","253499","NA","75707","NA","NA","2724","NA","2739","64153","253499","255452","16910","56807","2726","mousetracking operator preview effect","0","0","0","no","true","no","1680"
"neutral","undefined","1","undefined","undefined","white","no","legacy","legacy","legacy","0","relative","undefined","undefined","73","NA","0","0","0","0","0","0","0","89","89","0","15","0","no","04/24/19 10:45:21","A simple template for the mouse-tracking paradigm","yes","Experiment-FT.osexp","C:\Users\Kristen\Documents\opPreviewExperiment-master\procedure","no","mono","no","24","no","black","no","yes","1050","legacy","73","15","C:/Users/Kristen/Documents/opPreviewExperiment-master/procedure/subject-18.csv","legacy","Kafkaesque Koffka","3.2.6","add","0","l","NA","NA","l","l","11554","NA","NA","14170","11554","2","829","legacy","small","1024","2","48000","-16","experiment","3_6_add_true.jpg","18","even","legacy","255475","NA","75707","NA","NA","2724","NA","2739","64153","255475","257285","16910","56807","2726","mousetracking operator preview effect","0","0","0","no","true","no","1680"
"negative","undefined","1","undefined","undefined","white","no","legacy","legacy","legacy","0","relative","undefined","undefined","74","NA","0","0","0","0","0","0","0","90","90","0","15","0","no","04/24/19 10:45:21","A simple template for the mouse-tracking paradigm","yes","Experiment-FT.osexp","C:\Users\Kristen\Documents\opPreviewExperiment-master\procedure","no","mono","no","24","no","black","no","yes","1050","legacy","74","15","C:/Users/Kristen/Documents/opPreviewExperiment-master/procedure/subject-18.csv","legacy","Kafkaesque Koffka","3.2.6","mult","0","l","NA","NA","l","l","11554","NA","NA","14170","11554","2","917","legacy","small","1024","2","48000","-16","experiment","8_2_mult_true.jpg","18","even","legacy","257306","NA","75707","NA","NA","2724","NA","2739","64153","257306","259392","16910","56807","2726","mousetracking operator preview effect","0","0","0","no","true","no","1680"
"negative","undefined","1","undefined","undefined","white","no","legacy","legacy","legacy","0","relative","undefined","undefined","75","NA","0","0","0","0","0","0","0","91","91","0","15","0","no","04/24/19 10:45:21","A simple template for the mouse-tracking paradigm","yes","Experiment-FT.osexp","C:\Users\Kristen\Documents\opPreviewExperiment-master\procedure","no","mono","no","24","no","black","no","yes","1050","legacy","75","15","C:/Users/Kristen/Documents/opPreviewExperiment-master/procedure/subject-18.csv","legacy","Kafkaesque Koffka","3.2.6","add","0","l","NA","NA","l","l","11554","NA","NA","14170","11554","2","680","legacy","small","1024","2","48000","-16","experiment","5_3_add_true.jpg","18","even","legacy","259413","NA","75707","NA","NA","2724","NA","2739","64153","259413","261235","16910","56807","2726","mousetracking operator preview effect","0","0","0","no","true","no","1680"
"negative","undefined","1","undefined","undefined","white","no","legacy","legacy","legacy","0","relative","undefined","undefined","76","NA","0","0","0","0","0","0","0","92","92","0","15","0","no","04/24/19 10:45:21","A simple template for the mouse-tracking paradigm","yes","Experiment-FT.osexp","C:\Users\Kristen\Documents\opPreviewExperiment-master\procedure","no","mono","no","24","no","black","no","yes","1050","legacy","76","15","C:/Users/Kristen/Documents/opPreviewExperiment-master/procedure/subject-18.csv","legacy","Kafkaesque Koffka","3.2.6","mult","0","l","NA","NA","l","l","11554","NA","NA","14170","11554","2","784","legacy","small","1024","2","48000","-16","experiment","5_3_mult_true.jpg","18","even","legacy","261256","NA","75707","NA","NA","2724","NA","2739","64153","261256","263189","16910","56807","2726","mousetracking operator preview effect","0","0","0","no","true","no","1680"
"neutral","undefined","0","undefined","undefined","white","no","legacy","legacy","legacy","0","relative","undefined","undefined","77","NA","0","0","0","0","0","0","0","93","93","0","15","0","no","04/24/19 10:45:21","A simple template for the mouse-tracking paradigm","yes","Experiment-FT.osexp","C:\Users\Kristen\Documents\opPreviewExperiment-master\procedure","no","mono","no","24","no","black","no","yes","1050","legacy","77","15","C:/Users/Kristen/Documents/opPreviewExperiment-master/procedure/subject-18.csv","legacy","Kafkaesque Koffka","3.2.6","mult","0","l","NA","NA","l","l","11554","NA","NA","14170","11554","2","934","legacy","small","1024","2","48000","-16","experiment","8_2_mult_FI.jpg","18","even","legacy","263209","NA","75707","NA","NA","2724","NA","2739","64153","263209","266129","16910","56807","2726","mousetracking operator preview effect","0","0","0","no","false","no","1680"
"negative","undefined","1","undefined","undefined","white","no","legacy","legacy","legacy","0","relative","undefined","undefined","78","NA","0","0","0","0","0","0","0","94","94","0","15","0","no","04/24/19 10:45:21","A simple template for the mouse-tracking paradigm","yes","Experiment-FT.osexp","C:\Users\Kristen\Documents\opPreviewExperiment-master\procedure","no","mono","no","24","no","black","no","yes","1050","legacy","78","15","C:/Users/Kristen/Documents/opPreviewExperiment-master/procedure/subject-18.csv","legacy","Kafkaesque Koffka","3.2.6","add","0","l","NA","NA","l","l","11554","NA","NA","14170","11554","2","2399","legacy","small","1024","2","48000","-16","experiment","3_6_add_true.jpg","18","even","legacy","266166","NA","75707","NA","NA","2724","NA","2739","64153","266167","269720","16910","56807","2726","mousetracking operator preview effect","0","0","0","no","true","no","1680"
"negative","undefined","1","undefined","undefined","white","no","legacy","legacy","legacy","0","relative","undefined","undefined","79","NA","0","0","0","0","0","0","0","95","95","0","15","0","no","04/24/19 10:45:21","A simple template for the mouse-tracking paradigm","yes","Experiment-FT.osexp","C:\Users\Kristen\Documents\opPreviewExperiment-master\procedure","no","mono","no","24","no","black","no","yes","1050","legacy","79","15","C:/Users/Kristen/Documents/opPreviewExperiment-master/procedure/subject-18.csv","legacy","Kafkaesque Koffka","3.2.6","add","0","l","NA","NA","l","l","11554","NA","NA","14170","11554","2","792","legacy","large","1024","2","48000","-16","experiment","8_4_add_true.jpg","18","even","legacy","269747","NA","75707","NA","NA","2724","NA","2739","64153","269747","271673","16910","56807","2726","mousetracking operator preview effect","0","0","0","no","true","no","1680"
"neutral","undefined","1","undefined","undefined","white","no","legacy","legacy","legacy","0","relative","undefined","undefined","80","NA","0","0","0","0","0","0","0","96","96","0","15","0","no","04/24/19 10:45:21","A simple template for the mouse-tracking paradigm","yes","Experiment-FT.osexp","C:\Users\Kristen\Documents\opPreviewExperiment-master\procedure","no","mono","no","24","no","black","no","yes","1050","legacy","80","15","C:/Users/Kristen/Documents/opPreviewExperiment-master/procedure/subject-18.csv","legacy","Kafkaesque Koffka","3.2.6","mult","0","l","NA","NA","l","l","11554","NA","NA","14170","11554","2","908","legacy","small","1024","2","48000","-16","experiment","8_2_mult_true.jpg","18","even","legacy","271698","NA","75707","NA","NA","2724","NA","2739","64153","271699","273582","16910","56807","2726","mousetracking operator preview effect","0","0","0","no","true","no","1680"
"neutral","undefined","1","undefined","undefined","white","no","legacy","legacy","legacy","0","relative","undefined","undefined","81","NA","0","0","0","0","0","0","0","97","97","0","15","0","no","04/24/19 10:45:21","A simple template for the mouse-tracking paradigm","yes","Experiment-FT.osexp","C:\Users\Kristen\Documents\opPreviewExperiment-master\procedure","no","mono","no","24","no","black","no","yes","1050","legacy","81","15","C:/Users/Kristen/Documents/opPreviewExperiment-master/procedure/subject-18.csv","legacy","Kafkaesque Koffka","3.2.6","mult","0","a","NA","NA","l","l","11554","NA","NA","14170","11554","2","991","legacy","large","1024","2","48000","-16","experiment","4_9_mult_FI.jpg","18","even","legacy","273613","NA","75707","NA","NA","2724","NA","2739","64153","273613","275577","16910","56807","2726","mousetracking operator preview effect","0","0","0","no","false","no","1680"
"negative","undefined","1","undefined","undefined","white","no","legacy","legacy","legacy","0","relative","undefined","undefined","82","NA","0","0","0","0","0","0","0","98","98","0","15","0","no","04/24/19 10:45:21","A simple template for the mouse-tracking paradigm","yes","Experiment-FT.osexp","C:\Users\Kristen\Documents\opPreviewExperiment-master\procedure","no","mono","no","24","no","black","no","yes","1050","legacy","82","15","C:/Users/Kristen/Documents/opPreviewExperiment-master/procedure/subject-18.csv","legacy","Kafkaesque Koffka","3.2.6","add","0","l","NA","NA","l","l","11554","NA","NA","14170","11554","2","1688","legacy","small","1024","2","48000","-16","experiment","2_7_add_true.jpg","18","even","legacy","275599","NA","75707","NA","NA","2724","NA","2739","64153","275599","278431","16910","56807","2726","mousetracking operator preview effect","0","0","0","no","true","no","1680"
"neutral","undefined","1","undefined","undefined","white","no","legacy","legacy","legacy","0","relative","undefined","undefined","83","NA","0","0","0","0","0","0","0","99","99","0","15","0","no","04/24/19 10:45:21","A simple template for the mouse-tracking paradigm","yes","Experiment-FT.osexp","C:\Users\Kristen\Documents\opPreviewExperiment-master\procedure","no","mono","no","24","no","black","no","yes","1050","legacy","83","15","C:/Users/Kristen/Documents/opPreviewExperiment-master/procedure/subject-18.csv","legacy","Kafkaesque Koffka","3.2.6","mult","0","a","NA","NA","l","l","11554","NA","NA","14170","11554","2","1222","legacy","large","1024","2","48000","-16","experiment","4_9_mult_FNI.jpg","18","even","legacy","278455","NA","75707","NA","NA","2724","NA","2739","64153","278455","280671","16910","56807","2726","mousetracking operator preview effect","0","0","0","no","false","no","1680"
"neutral","undefined","1","undefined","undefined","white","no","legacy","legacy","legacy","0","relative","undefined","undefined","84","NA","0","0","0","0","0","0","0","100","100","0","15","0","no","04/24/19 10:45:21","A simple template for the mouse-tracking paradigm","yes","Experiment-FT.osexp","C:\Users\Kristen\Documents\opPreviewExperiment-master\procedure","no","mono","no","24","no","black","no","yes","1050","legacy","84","15","C:/Users/Kristen/Documents/opPreviewExperiment-master/procedure/subject-18.csv","legacy","Kafkaesque Koffka","3.2.6","add","0","l","NA","NA","l","l","11554","NA","NA","14170","11554","2","918","legacy","small","1024","2","48000","-16","experiment","8_2_add_true.jpg","18","even","legacy","280686","NA","75707","NA","NA","2724","NA","2739","64153","280686","282581","16910","56807","2726","mousetracking operator preview effect","0","0","0","no","true","no","1680"
"negative","undefined","1","undefined","undefined","white","no","legacy","legacy","legacy","0","relative","undefined","undefined","85","NA","0","0","0","0","0","0","0","101","101","0","15","0","no","04/24/19 10:45:21","A simple template for the mouse-tracking paradigm","yes","Experiment-FT.osexp","C:\Users\Kristen\Documents\opPreviewExperiment-master\procedure","no","mono","no","24","no","black","no","yes","1050","legacy","85","15","C:/Users/Kristen/Documents/opPreviewExperiment-master/procedure/subject-18.csv","legacy","Kafkaesque Koffka","3.2.6","mult","0","l","NA","NA","l","l","11554","NA","NA","14170","11554","2","747","legacy","large","1024","2","48000","-16","experiment","6_8_mult_true.jpg","18","even","legacy","282601","NA","75707","NA","NA","2724","NA","2739","64153","282601","284492","16910","56807","2726","mousetracking operator preview effect","0","0","0","no","true","no","1680"
"negative","undefined","1","undefined","undefined","white","no","legacy","legacy","legacy","0","relative","undefined","undefined","86","NA","0","0","0","0","0","0","0","102","102","0","15","0","no","04/24/19 10:45:21","A simple template for the mouse-tracking paradigm","yes","Experiment-FT.osexp","C:\Users\Kristen\Documents\opPreviewExperiment-master\procedure","no","mono","no","24","no","black","no","yes","1050","legacy","86","15","C:/Users/Kristen/Documents/opPreviewExperiment-master/procedure/subject-18.csv","legacy","Kafkaesque Koffka","3.2.6","add","0","a","NA","NA","l","l","11554","NA","NA","14170","11554","2","1261","legacy","small","1024","2","48000","-16","experiment","5_3_add_FI.jpg","18","even","legacy","284521","NA","75707","NA","NA","2724","NA","2739","64153","284521","286955","16910","56807","2726","mousetracking operator preview effect","0","0","0","no","false","no","1680"
"neutral","undefined","1","undefined","undefined","white","no","legacy","legacy","legacy","0","relative","undefined","undefined","87","NA","0","0","0","0","0","0","0","103","103","0","15","0","no","04/24/19 10:45:21","A simple template for the mouse-tracking paradigm","yes","Experiment-FT.osexp","C:\Users\Kristen\Documents\opPreviewExperiment-master\procedure","no","mono","no","24","no","black","no","yes","1050","legacy","87","15","C:/Users/Kristen/Documents/opPreviewExperiment-master/procedure/subject-18.csv","legacy","Kafkaesque Koffka","3.2.6","mult","0","a","NA","NA","l","l","11554","NA","NA","14170","11554","2","991","legacy","small","1024","2","48000","-16","experiment","2_7_mult_FI.jpg","18","even","legacy","286977","NA","75707","NA","NA","2724","NA","2739","64153","286977","288944","16910","56807","2726","mousetracking operator preview effect","0","0","0","no","false","no","1680"
"neutral","undefined","1","undefined","undefined","white","no","legacy","legacy","legacy","0","relative","undefined","undefined","88","NA","0","0","0","0","0","0","0","104","104","0","15","0","no","04/24/19 10:45:21","A simple template for the mouse-tracking paradigm","yes","Experiment-FT.osexp","C:\Users\Kristen\Documents\opPreviewExperiment-master\procedure","no","mono","no","24","no","black","no","yes","1050","legacy","88","15","C:/Users/Kristen/Documents/opPreviewExperiment-master/procedure/subject-18.csv","legacy","Kafkaesque Koffka","3.2.6","add","0","l","NA","NA","l","l","11554","NA","NA","14170","11554","2","1025","legacy","large","1024","2","48000","-16","experiment","6_8_add_true.jpg","18","even","legacy","288971","NA","75707","NA","NA","2724","NA","2739","64153","288971","290972","16910","56807","2726","mousetracking operator preview effect","0","0","0","no","true","no","1680"
"neutral","undefined","1","undefined","undefined","white","no","legacy","legacy","legacy","0","relative","undefined","undefined","89","NA","0","0","0","0","0","0","0","105","105","0","15","0","no","04/24/19 10:45:21","A simple template for the mouse-tracking paradigm","yes","Experiment-FT.osexp","C:\Users\Kristen\Documents\opPreviewExperiment-master\procedure","no","mono","no","24","no","black","no","yes","1050","legacy","89","15","C:/Users/Kristen/Documents/opPreviewExperiment-master/procedure/subject-18.csv","legacy","Kafkaesque Koffka","3.2.6","add","0","l","NA","NA","l","l","11554","NA","NA","14170","11554","2","895","legacy","small","1024","2","48000","-16","experiment","5_3_add_true.jpg","18","even","legacy","290995","NA","75707","NA","NA","2724","NA","2739","64153","290995","292870","16910","56807","2726","mousetracking operator preview effect","0","0","0","no","true","no","1680"
"negative","undefined","1","undefined","undefined","white","no","legacy","legacy","legacy","0","relative","undefined","undefined","90","NA","0","0","0","0","0","0","0","106","106","0","15","0","no","04/24/19 10:45:21","A simple template for the mouse-tracking paradigm","yes","Experiment-FT.osexp","C:\Users\Kristen\Documents\opPreviewExperiment-master\procedure","no","mono","no","24","no","black","no","yes","1050","legacy","90","15","C:/Users/Kristen/Documents/opPreviewExperiment-master/procedure/subject-18.csv","legacy","Kafkaesque Koffka","3.2.6","add","0","a","NA","NA","l","l","11554","NA","NA","14170","11554","2","947","legacy","small","1024","2","48000","-16","experiment","2_7_add_FNI.jpg","18","even","legacy","292890","NA","75707","NA","NA","2724","NA","2739","64153","292890","294988","16910","56807","2726","mousetracking operator preview effect","0","0","0","no","false","no","1680"
"negative","undefined","0","undefined","undefined","white","no","legacy","legacy","legacy","0","relative","undefined","undefined","91","NA","0","0","0","0","0","0","0","107","107","0","15","0","no","04/24/19 10:45:21","A simple template for the mouse-tracking paradigm","yes","Experiment-FT.osexp","C:\Users\Kristen\Documents\opPreviewExperiment-master\procedure","no","mono","no","24","no","black","no","yes","1050","legacy","91","15","C:/Users/Kristen/Documents/opPreviewExperiment-master/procedure/subject-18.csv","legacy","Kafkaesque Koffka","3.2.6","add","0","l","NA","NA","l","l","11554","NA","NA","14170","11554","2","1473","legacy","small","1024","2","48000","-16","experiment","2_7_add_FI.jpg","18","even","legacy","295013","NA","75707","NA","NA","2724","NA","2739","64153","295013","298679","16910","56807","2726","mousetracking operator preview effect","0","0","0","no","false","no","1680"
"negative","undefined","1","undefined","undefined","white","no","legacy","legacy","legacy","0","relative","undefined","undefined","92","NA","0","0","0","0","0","0","0","108","108","0","15","0","no","04/24/19 10:45:21","A simple template for the mouse-tracking paradigm","yes","Experiment-FT.osexp","C:\Users\Kristen\Documents\opPreviewExperiment-master\procedure","no","mono","no","24","no","black","no","yes","1050","legacy","92","15","C:/Users/Kristen/Documents/opPreviewExperiment-master/procedure/subject-18.csv","legacy","Kafkaesque Koffka","3.2.6","add","0","l","NA","NA","l","l","11554","NA","NA","14170","11554","2","926","legacy","large","1024","2","48000","-16","experiment","6_8_add_true.jpg","18","even","legacy","298716","NA","75707","NA","NA","2724","NA","2739","64153","298716","300797","16910","56807","2726","mousetracking operator preview effect","0","0","0","no","true","no","1680"
