"SOAcondition","acc","accuracy","average_response_time","avg_rt","background","bidi","canvas_backend","clock_backend","color_backend","compensation","coordinates","correct","correct_instruction1","count_block1_sequence","count_block2_sequence","count_block_1","count_block_2","count_breakScreen","count_experiment","count_finish","count_instruction1","count_instruction2","count_keyboard_script","count_logger","count_practiceBlock","count_practice_sequence","count_setup_script","custom_cursor","datetime","description","disable_garbage_collection","experiment_file","experiment_path","font_bold","font_family","font_italic","font_size","font_underline","foreground","form_clicks","fullscreen","height","keyboard_backend","live_row","live_row_practiceBlock","logfile","mouse_backend","opensesame_codename","opensesame_version","operation","repeat_cycle","response","response_breakScreen","response_finish","response_instruction1","response_instruction2","response_time","response_time_breakScreen","response_time_finish","response_time_instruction1","response_time_instruction2","round_decimals","rt","sampler_backend","size","sound_buf_size","sound_channels","sound_freq","sound_sample_size","start","stimulus","subject_nr","subject_parity","synth_backend","time_block1_sequence","time_block2_sequence","time_block_1","time_block_2","time_breakScreen","time_experiment","time_finish","time_instruction1","time_instruction2","time_keyboard_script","time_logger","time_practiceBlock","time_practice_sequence","time_setup_script","title","total_correct","total_response_time","total_responses","transparent_variables","truth","uniform_coordinates","width"
"neutral","undefined","1","undefined","undefined","white","no","legacy","legacy","legacy","0","relative","undefined","undefined","NA","NA","0","0","0","0","0","0","0","0","0","0","0","0","no","03/09/19 16:29:45","A simple template for the mouse-tracking paradigm","yes","Experiment-TF.osexp","C:\Users\Kristen\Documents\opPreviewExperiment-master\procedure","no","mono","no","24","no","black","no","yes","1050","legacy","0","0","C:/Users/Kristen/Documents/opPreviewExperiment-master/procedure/subject-6.csv","legacy","Kafkaesque Koffka","3.2.6","add","0","a","NA","NA","b","NA","156","NA","NA","156","NA","2","7746","legacy","NA","1024","2","48000","-16","experiment","0_3_add_T.jpg","6","even","legacy","NA","NA","NA","NA","NA","2890","NA","2905","NA","3066","11863","3063","3066","2891","mousetracking operator preview effect","0","0","0","no","true","no","1680"
"negative","undefined","1","undefined","undefined","white","no","legacy","legacy","legacy","0","relative","undefined","undefined","NA","NA","0","0","0","0","0","0","0","1","1","0","1","0","no","03/09/19 16:29:45","A simple template for the mouse-tracking paradigm","yes","Experiment-TF.osexp","C:\Users\Kristen\Documents\opPreviewExperiment-master\procedure","no","mono","no","24","no","black","no","yes","1050","legacy","1","1","C:/Users/Kristen/Documents/opPreviewExperiment-master/procedure/subject-6.csv","legacy","Kafkaesque Koffka","3.2.6","add","0","a","NA","NA","b","NA","156","NA","NA","156","NA","2","7337","legacy","NA","1024","2","48000","-16","experiment","0_3_add_T.jpg","6","even","legacy","NA","NA","NA","NA","NA","2890","NA","2905","NA","11890","20375","3063","11890","2891","mousetracking operator preview effect","0","0","0","no","true","no","1680"
"negative","undefined","1","undefined","undefined","white","no","legacy","legacy","legacy","0","relative","undefined","undefined","NA","NA","0","0","0","0","0","0","0","2","2","0","2","0","no","03/09/19 16:29:45","A simple template for the mouse-tracking paradigm","yes","Experiment-TF.osexp","C:\Users\Kristen\Documents\opPreviewExperiment-master\procedure","no","mono","no","24","no","black","no","yes","1050","legacy","2","2","C:/Users/Kristen/Documents/opPreviewExperiment-master/procedure/subject-6.csv","legacy","Kafkaesque Koffka","3.2.6","mult","0","a","NA","NA","b","NA","156","NA","NA","156","NA","2","1930","legacy","NA","1024","2","48000","-16","experiment","1_4_mult_T.jpg","6","even","legacy","NA","NA","NA","NA","NA","2890","NA","2905","NA","20396","23503","3063","20396","2891","mousetracking operator preview effect","0","0","0","no","true","no","1680"
"neutral","undefined","1","undefined","undefined","white","no","legacy","legacy","legacy","0","relative","undefined","undefined","NA","NA","0","0","0","0","0","0","0","3","3","0","3","0","no","03/09/19 16:29:45","A simple template for the mouse-tracking paradigm","yes","Experiment-TF.osexp","C:\Users\Kristen\Documents\opPreviewExperiment-master\procedure","no","mono","no","24","no","black","no","yes","1050","legacy","3","3","C:/Users/Kristen/Documents/opPreviewExperiment-master/procedure/subject-6.csv","legacy","Kafkaesque Koffka","3.2.6","add","0","l","NA","NA","b","NA","156","NA","NA","156","NA","2","2931","legacy","NA","1024","2","48000","-16","experiment","0_3_add_F.jpg","6","even","legacy","NA","NA","NA","NA","NA","2890","NA","2905","NA","23533","27446","3063","23533","2891","mousetracking operator preview effect","0","0","0","no","false","no","1680"
"negative","undefined","1","undefined","undefined","white","no","legacy","legacy","legacy","0","relative","undefined","undefined","NA","NA","0","0","0","0","0","0","0","4","4","0","4","0","no","03/09/19 16:29:45","A simple template for the mouse-tracking paradigm","yes","Experiment-TF.osexp","C:\Users\Kristen\Documents\opPreviewExperiment-master\procedure","no","mono","no","24","no","black","no","yes","1050","legacy","4","4","C:/Users/Kristen/Documents/opPreviewExperiment-master/procedure/subject-6.csv","legacy","Kafkaesque Koffka","3.2.6","mult","0","a","NA","NA","b","NA","156","NA","NA","156","NA","2","2052","legacy","NA","1024","2","48000","-16","experiment","0_3_mult_T.jpg","6","even","legacy","NA","NA","NA","NA","NA","2890","NA","2905","NA","27467","30678","3063","27467","2891","mousetracking operator preview effect","0","0","0","no","true","no","1680"
"negative","undefined","1","undefined","undefined","white","no","legacy","legacy","legacy","0","relative","undefined","undefined","NA","NA","0","0","0","0","0","0","0","5","5","0","5","0","no","03/09/19 16:29:45","A simple template for the mouse-tracking paradigm","yes","Experiment-TF.osexp","C:\Users\Kristen\Documents\opPreviewExperiment-master\procedure","no","mono","no","24","no","black","no","yes","1050","legacy","5","5","C:/Users/Kristen/Documents/opPreviewExperiment-master/procedure/subject-6.csv","legacy","Kafkaesque Koffka","3.2.6","add","0","l","NA","NA","b","NA","156","NA","NA","156","NA","2","1693","legacy","NA","1024","2","48000","-16","experiment","1_4_add_F.jpg","6","even","legacy","NA","NA","NA","NA","NA","2890","NA","2905","NA","30701","33544","3063","30701","2891","mousetracking operator preview effect","0","0","0","no","false","no","1680"
"negative","undefined","1","undefined","undefined","white","no","legacy","legacy","legacy","0","relative","undefined","undefined","NA","NA","0","0","0","0","0","0","0","6","6","0","6","0","no","03/09/19 16:29:45","A simple template for the mouse-tracking paradigm","yes","Experiment-TF.osexp","C:\Users\Kristen\Documents\opPreviewExperiment-master\procedure","no","mono","no","24","no","black","no","yes","1050","legacy","6","6","C:/Users/Kristen/Documents/opPreviewExperiment-master/procedure/subject-6.csv","legacy","Kafkaesque Koffka","3.2.6","mult","0","l","NA","NA","b","NA","156","NA","NA","156","NA","2","1785","legacy","NA","1024","2","48000","-16","experiment","0_3_mult_F.jpg","6","even","legacy","NA","NA","NA","NA","NA","2890","NA","2905","NA","33565","36503","3063","33565","2891","mousetracking operator preview effect","0","0","0","no","false","no","1680"
"negative","undefined","1","undefined","undefined","white","no","legacy","legacy","legacy","0","relative","undefined","undefined","NA","NA","0","0","0","0","0","0","0","7","7","0","7","0","no","03/09/19 16:29:45","A simple template for the mouse-tracking paradigm","yes","Experiment-TF.osexp","C:\Users\Kristen\Documents\opPreviewExperiment-master\procedure","no","mono","no","24","no","black","no","yes","1050","legacy","7","7","C:/Users/Kristen/Documents/opPreviewExperiment-master/procedure/subject-6.csv","legacy","Kafkaesque Koffka","3.2.6","add","0","a","NA","NA","b","NA","156","NA","NA","156","NA","2","1503","legacy","NA","1024","2","48000","-16","experiment","1_4_add_T.jpg","6","even","legacy","NA","NA","NA","NA","NA","2890","NA","2905","NA","36533","39170","3063","36533","2891","mousetracking operator preview effect","0","0","0","no","true","no","1680"
"neutral","undefined","1","undefined","undefined","white","no","legacy","legacy","legacy","0","relative","undefined","undefined","NA","NA","0","0","0","0","0","0","0","8","8","0","8","0","no","03/09/19 16:29:45","A simple template for the mouse-tracking paradigm","yes","Experiment-TF.osexp","C:\Users\Kristen\Documents\opPreviewExperiment-master\procedure","no","mono","no","24","no","black","no","yes","1050","legacy","8","8","C:/Users/Kristen/Documents/opPreviewExperiment-master/procedure/subject-6.csv","legacy","Kafkaesque Koffka","3.2.6","mult","0","l","NA","NA","b","NA","156","NA","NA","156","NA","2","1329","legacy","NA","1024","2","48000","-16","experiment","0_3_mult_F.jpg","6","even","legacy","NA","NA","NA","NA","NA","2890","NA","2905","NA","39199","41506","3063","39199","2891","mousetracking operator preview effect","0","0","0","no","false","no","1680"
"neutral","undefined","1","undefined","undefined","white","no","legacy","legacy","legacy","0","relative","undefined","undefined","NA","NA","0","0","0","0","0","0","0","9","9","0","9","0","no","03/09/19 16:29:45","A simple template for the mouse-tracking paradigm","yes","Experiment-TF.osexp","C:\Users\Kristen\Documents\opPreviewExperiment-master\procedure","no","mono","no","24","no","black","no","yes","1050","legacy","9","9","C:/Users/Kristen/Documents/opPreviewExperiment-master/procedure/subject-6.csv","legacy","Kafkaesque Koffka","3.2.6","mult","0","a","NA","NA","b","NA","156","NA","NA","156","NA","2","1695","legacy","NA","1024","2","48000","-16","experiment","0_3_mult_T.jpg","6","even","legacy","NA","NA","NA","NA","NA","2890","NA","2905","NA","41527","44202","3063","41527","2891","mousetracking operator preview effect","0","0","0","no","true","no","1680"
"neutral","undefined","1","undefined","undefined","white","no","legacy","legacy","legacy","0","relative","undefined","undefined","NA","NA","0","0","0","0","0","0","0","10","10","0","10","0","no","03/09/19 16:29:45","A simple template for the mouse-tracking paradigm","yes","Experiment-TF.osexp","C:\Users\Kristen\Documents\opPreviewExperiment-master\procedure","no","mono","no","24","no","black","no","yes","1050","legacy","10","10","C:/Users/Kristen/Documents/opPreviewExperiment-master/procedure/subject-6.csv","legacy","Kafkaesque Koffka","3.2.6","mult","0","a","NA","NA","b","NA","156","NA","NA","156","NA","2","1200","legacy","NA","1024","2","48000","-16","experiment","1_4_mult_T.jpg","6","even","legacy","NA","NA","NA","NA","NA","2890","NA","2905","NA","44226","46393","3063","44225","2891","mousetracking operator preview effect","0","0","0","no","true","no","1680"
"neutral","undefined","1","undefined","undefined","white","no","legacy","legacy","legacy","0","relative","undefined","undefined","NA","NA","0","0","0","0","0","0","0","11","11","0","11","0","no","03/09/19 16:29:45","A simple template for the mouse-tracking paradigm","yes","Experiment-TF.osexp","C:\Users\Kristen\Documents\opPreviewExperiment-master\procedure","no","mono","no","24","no","black","no","yes","1050","legacy","11","11","C:/Users/Kristen/Documents/opPreviewExperiment-master/procedure/subject-6.csv","legacy","Kafkaesque Koffka","3.2.6","mult","0","l","NA","NA","b","NA","156","NA","NA","156","NA","2","1187","legacy","NA","1024","2","48000","-16","experiment","1_4_mult_F.jpg","6","even","legacy","NA","NA","NA","NA","NA","2890","NA","2905","NA","46413","48567","3063","46413","2891","mousetracking operator preview effect","0","0","0","no","false","no","1680"
"negative","undefined","1","undefined","undefined","white","no","legacy","legacy","legacy","0","relative","undefined","undefined","NA","NA","0","0","0","0","0","0","0","12","12","0","12","0","no","03/09/19 16:29:45","A simple template for the mouse-tracking paradigm","yes","Experiment-TF.osexp","C:\Users\Kristen\Documents\opPreviewExperiment-master\procedure","no","mono","no","24","no","black","no","yes","1050","legacy","12","12","C:/Users/Kristen/Documents/opPreviewExperiment-master/procedure/subject-6.csv","legacy","Kafkaesque Koffka","3.2.6","add","0","l","NA","NA","b","NA","156","NA","NA","156","NA","2","2788","legacy","NA","1024","2","48000","-16","experiment","0_3_add_F.jpg","6","even","legacy","NA","NA","NA","NA","NA","2890","NA","2905","NA","48589","52518","3063","48589","2891","mousetracking operator preview effect","0","0","0","no","false","no","1680"
"neutral","undefined","1","undefined","undefined","white","no","legacy","legacy","legacy","0","relative","undefined","undefined","NA","NA","0","0","0","0","0","0","0","13","13","0","13","0","no","03/09/19 16:29:45","A simple template for the mouse-tracking paradigm","yes","Experiment-TF.osexp","C:\Users\Kristen\Documents\opPreviewExperiment-master\procedure","no","mono","no","24","no","black","no","yes","1050","legacy","13","13","C:/Users/Kristen/Documents/opPreviewExperiment-master/procedure/subject-6.csv","legacy","Kafkaesque Koffka","3.2.6","add","0","a","NA","NA","b","NA","156","NA","NA","156","NA","2","1361","legacy","NA","1024","2","48000","-16","experiment","1_4_add_T.jpg","6","even","legacy","NA","NA","NA","NA","NA","2890","NA","2905","NA","52540","54876","3063","52539","2891","mousetracking operator preview effect","0","0","0","no","true","no","1680"
"negative","undefined","1","undefined","undefined","white","no","legacy","legacy","legacy","0","relative","undefined","undefined","NA","NA","0","0","0","0","0","0","0","14","14","0","14","0","no","03/09/19 16:29:45","A simple template for the mouse-tracking paradigm","yes","Experiment-TF.osexp","C:\Users\Kristen\Documents\opPreviewExperiment-master\procedure","no","mono","no","24","no","black","no","yes","1050","legacy","14","14","C:/Users/Kristen/Documents/opPreviewExperiment-master/procedure/subject-6.csv","legacy","Kafkaesque Koffka","3.2.6","mult","0","l","NA","NA","b","NA","156","NA","NA","156","NA","2","1476","legacy","NA","1024","2","48000","-16","experiment","1_4_mult_F.jpg","6","even","legacy","NA","NA","NA","NA","NA","2890","NA","2905","NA","54890","57510","3063","54890","2891","mousetracking operator preview effect","0","0","0","no","false","no","1680"
"neutral","undefined","1","undefined","undefined","white","no","legacy","legacy","legacy","0","relative","undefined","undefined","NA","NA","0","0","0","0","0","0","0","15","15","0","15","0","no","03/09/19 16:29:45","A simple template for the mouse-tracking paradigm","yes","Experiment-TF.osexp","C:\Users\Kristen\Documents\opPreviewExperiment-master\procedure","no","mono","no","24","no","black","no","yes","1050","legacy","15","15","C:/Users/Kristen/Documents/opPreviewExperiment-master/procedure/subject-6.csv","legacy","Kafkaesque Koffka","3.2.6","add","0","l","NA","NA","b","NA","156","NA","NA","156","NA","2","1590","legacy","NA","1024","2","48000","-16","experiment","1_4_add_F.jpg","6","even","legacy","NA","NA","NA","NA","NA","2890","NA","2905","NA","57539","60103","3063","57539","2891","mousetracking operator preview effect","0","0","0","no","false","no","1680"
"neutral","undefined","1","undefined","undefined","white","no","legacy","legacy","legacy","0","relative","undefined","undefined","0","NA","0","0","0","0","0","0","0","16","16","0","15","0","no","03/09/19 16:29:45","A simple template for the mouse-tracking paradigm","yes","Experiment-TF.osexp","C:\Users\Kristen\Documents\opPreviewExperiment-master\procedure","no","mono","no","24","no","black","no","yes","1050","legacy","0","15","C:/Users/Kristen/Documents/opPreviewExperiment-master/procedure/subject-6.csv","legacy","Kafkaesque Koffka","3.2.6","add","0","l","NA","NA","b","a","10694","NA","NA","156","10694","2","1700","legacy","large","1024","2","48000","-16","experiment","9_7_add_FNI.jpg","6","even","legacy","70825","NA","70821","NA","NA","2890","NA","2905","60127","70825","73516","3063","57539","2891","mousetracking operator preview effect","0","0","0","no","false","no","1680"
"neutral","undefined","1","undefined","undefined","white","no","legacy","legacy","legacy","0","relative","undefined","undefined","1","NA","0","0","0","0","0","0","0","17","17","0","15","0","no","03/09/19 16:29:45","A simple template for the mouse-tracking paradigm","yes","Experiment-TF.osexp","C:\Users\Kristen\Documents\opPreviewExperiment-master\procedure","no","mono","no","24","no","black","no","yes","1050","legacy","1","15","C:/Users/Kristen/Documents/opPreviewExperiment-master/procedure/subject-6.csv","legacy","Kafkaesque Koffka","3.2.6","mult","0","a","NA","NA","b","a","10694","NA","NA","156","10694","2","5799","legacy","large","1024","2","48000","-16","experiment","8_4_mult_true.jpg","6","even","legacy","73539","NA","70821","NA","NA","2890","NA","2905","60127","73539","80337","3063","57539","2891","mousetracking operator preview effect","0","0","0","no","true","no","1680"
"neutral","undefined","1","undefined","undefined","white","no","legacy","legacy","legacy","0","relative","undefined","undefined","2","NA","0","0","0","0","0","0","0","18","18","0","15","0","no","03/09/19 16:29:45","A simple template for the mouse-tracking paradigm","yes","Experiment-TF.osexp","C:\Users\Kristen\Documents\opPreviewExperiment-master\procedure","no","mono","no","24","no","black","no","yes","1050","legacy","2","15","C:/Users/Kristen/Documents/opPreviewExperiment-master/procedure/subject-6.csv","legacy","Kafkaesque Koffka","3.2.6","add","0","l","NA","NA","b","a","10694","NA","NA","156","10694","2","1752","legacy","large","1024","2","48000","-16","experiment","6_8_add_FI.jpg","6","even","legacy","80364","NA","70821","NA","NA","2890","NA","2905","60127","80364","83107","3063","57539","2891","mousetracking operator preview effect","0","0","0","no","false","no","1680"
"neutral","undefined","1","undefined","undefined","white","no","legacy","legacy","legacy","0","relative","undefined","undefined","3","NA","0","0","0","0","0","0","0","19","19","0","15","0","no","03/09/19 16:29:45","A simple template for the mouse-tracking paradigm","yes","Experiment-TF.osexp","C:\Users\Kristen\Documents\opPreviewExperiment-master\procedure","no","mono","no","24","no","black","no","yes","1050","legacy","3","15","C:/Users/Kristen/Documents/opPreviewExperiment-master/procedure/subject-6.csv","legacy","Kafkaesque Koffka","3.2.6","mult","0","l","NA","NA","b","a","10694","NA","NA","156","10694","2","1438","legacy","small","1024","2","48000","-16","experiment","2_7_mult_FI.jpg","6","even","legacy","83136","NA","70821","NA","NA","2890","NA","2905","60127","83136","85578","3063","57539","2891","mousetracking operator preview effect","0","0","0","no","false","no","1680"
"neutral","undefined","1","undefined","undefined","white","no","legacy","legacy","legacy","0","relative","undefined","undefined","4","NA","0","0","0","0","0","0","0","20","20","0","15","0","no","03/09/19 16:29:45","A simple template for the mouse-tracking paradigm","yes","Experiment-TF.osexp","C:\Users\Kristen\Documents\opPreviewExperiment-master\procedure","no","mono","no","24","no","black","no","yes","1050","legacy","4","15","C:/Users/Kristen/Documents/opPreviewExperiment-master/procedure/subject-6.csv","legacy","Kafkaesque Koffka","3.2.6","mult","0","a","NA","NA","b","a","10694","NA","NA","156","10694","2","3283","legacy","large","1024","2","48000","-16","experiment","8_4_mult_true.jpg","6","even","legacy","85600","NA","70821","NA","NA","2890","NA","2905","60127","85600","89847","3063","57539","2891","mousetracking operator preview effect","0","0","0","no","true","no","1680"
"neutral","undefined","1","undefined","undefined","white","no","legacy","legacy","legacy","0","relative","undefined","undefined","5","NA","0","0","0","0","0","0","0","21","21","0","15","0","no","03/09/19 16:29:45","A simple template for the mouse-tracking paradigm","yes","Experiment-TF.osexp","C:\Users\Kristen\Documents\opPreviewExperiment-master\procedure","no","mono","no","24","no","black","no","yes","1050","legacy","5","15","C:/Users/Kristen/Documents/opPreviewExperiment-master/procedure/subject-6.csv","legacy","Kafkaesque Koffka","3.2.6","mult","0","a","NA","NA","b","a","10694","NA","NA","156","10694","2","1680","legacy","large","1024","2","48000","-16","experiment","9_7_mult_true.jpg","6","even","legacy","89870","NA","70821","NA","NA","2890","NA","2905","60127","89871","92533","3063","57539","2891","mousetracking operator preview effect","0","0","0","no","true","no","1680"
"negative","undefined","1","undefined","undefined","white","no","legacy","legacy","legacy","0","relative","undefined","undefined","6","NA","0","0","0","0","0","0","0","22","22","0","15","0","no","03/09/19 16:29:45","A simple template for the mouse-tracking paradigm","yes","Experiment-TF.osexp","C:\Users\Kristen\Documents\opPreviewExperiment-master\procedure","no","mono","no","24","no","black","no","yes","1050","legacy","6","15","C:/Users/Kristen/Documents/opPreviewExperiment-master/procedure/subject-6.csv","legacy","Kafkaesque Koffka","3.2.6","mult","0","a","NA","NA","b","a","10694","NA","NA","156","10694","2","2665","legacy","small","1024","2","48000","-16","experiment","3_6_mult_true.jpg","6","even","legacy","92554","NA","70821","NA","NA","2890","NA","2905","60127","92554","96392","3063","57539","2891","mousetracking operator preview effect","0","0","0","no","true","no","1680"
"neutral","undefined","1","undefined","undefined","white","no","legacy","legacy","legacy","0","relative","undefined","undefined","7","NA","0","0","0","0","0","0","0","23","23","0","15","0","no","03/09/19 16:29:45","A simple template for the mouse-tracking paradigm","yes","Experiment-TF.osexp","C:\Users\Kristen\Documents\opPreviewExperiment-master\procedure","no","mono","no","24","no","black","no","yes","1050","legacy","7","15","C:/Users/Kristen/Documents/opPreviewExperiment-master/procedure/subject-6.csv","legacy","Kafkaesque Koffka","3.2.6","add","0","l","NA","NA","b","a","10694","NA","NA","156","10694","2","1591","legacy","large","1024","2","48000","-16","experiment","4_9_add_FI.jpg","6","even","legacy","96419","NA","70821","NA","NA","2890","NA","2905","60127","96420","99009","3063","57539","2891","mousetracking operator preview effect","0","0","0","no","false","no","1680"
"neutral","undefined","1","undefined","undefined","white","no","legacy","legacy","legacy","0","relative","undefined","undefined","8","NA","0","0","0","0","0","0","0","24","24","0","15","0","no","03/09/19 16:29:45","A simple template for the mouse-tracking paradigm","yes","Experiment-TF.osexp","C:\Users\Kristen\Documents\opPreviewExperiment-master\procedure","no","mono","no","24","no","black","no","yes","1050","legacy","8","15","C:/Users/Kristen/Documents/opPreviewExperiment-master/procedure/subject-6.csv","legacy","Kafkaesque Koffka","3.2.6","add","0","l","NA","NA","b","a","10694","NA","NA","156","10694","2","1503","legacy","small","1024","2","48000","-16","experiment","8_2_add_FI.jpg","6","even","legacy","99035","NA","70821","NA","NA","2890","NA","2905","60127","99035","101529","3063","57539","2891","mousetracking operator preview effect","0","0","0","no","false","no","1680"
"negative","undefined","1","undefined","undefined","white","no","legacy","legacy","legacy","0","relative","undefined","undefined","9","NA","0","0","0","0","0","0","0","25","25","0","15","0","no","03/09/19 16:29:45","A simple template for the mouse-tracking paradigm","yes","Experiment-TF.osexp","C:\Users\Kristen\Documents\opPreviewExperiment-master\procedure","no","mono","no","24","no","black","no","yes","1050","legacy","9","15","C:/Users/Kristen/Documents/opPreviewExperiment-master/procedure/subject-6.csv","legacy","Kafkaesque Koffka","3.2.6","add","0","l","NA","NA","b","a","10694","NA","NA","156","10694","2","1604","legacy","small","1024","2","48000","-16","experiment","8_2_add_FI.jpg","6","even","legacy","101550","NA","70821","NA","NA","2890","NA","2905","60127","101550","104302","3063","57539","2891","mousetracking operator preview effect","0","0","0","no","false","no","1680"
"neutral","undefined","1","undefined","undefined","white","no","legacy","legacy","legacy","0","relative","undefined","undefined","10","NA","0","0","0","0","0","0","0","26","26","0","15","0","no","03/09/19 16:29:45","A simple template for the mouse-tracking paradigm","yes","Experiment-TF.osexp","C:\Users\Kristen\Documents\opPreviewExperiment-master\procedure","no","mono","no","24","no","black","no","yes","1050","legacy","10","15","C:/Users/Kristen/Documents/opPreviewExperiment-master/procedure/subject-6.csv","legacy","Kafkaesque Koffka","3.2.6","add","0","a","NA","NA","b","a","10694","NA","NA","156","10694","2","1560","legacy","large","1024","2","48000","-16","experiment","8_4_add_true.jpg","6","even","legacy","104324","NA","70821","NA","NA","2890","NA","2905","60127","104324","106870","3063","57539","2891","mousetracking operator preview effect","0","0","0","no","true","no","1680"
"negative","undefined","1","undefined","undefined","white","no","legacy","legacy","legacy","0","relative","undefined","undefined","11","NA","0","0","0","0","0","0","0","27","27","0","15","0","no","03/09/19 16:29:45","A simple template for the mouse-tracking paradigm","yes","Experiment-TF.osexp","C:\Users\Kristen\Documents\opPreviewExperiment-master\procedure","no","mono","no","24","no","black","no","yes","1050","legacy","11","15","C:/Users/Kristen/Documents/opPreviewExperiment-master/procedure/subject-6.csv","legacy","Kafkaesque Koffka","3.2.6","mult","0","a","NA","NA","b","a","10694","NA","NA","156","10694","2","1877","legacy","small","1024","2","48000","-16","experiment","5_3_mult_true.jpg","6","even","legacy","106899","NA","70821","NA","NA","2890","NA","2905","60127","106899","109941","3063","57539","2891","mousetracking operator preview effect","0","0","0","no","true","no","1680"
"negative","undefined","1","undefined","undefined","white","no","legacy","legacy","legacy","0","relative","undefined","undefined","12","NA","0","0","0","0","0","0","0","28","28","0","15","0","no","03/09/19 16:29:45","A simple template for the mouse-tracking paradigm","yes","Experiment-TF.osexp","C:\Users\Kristen\Documents\opPreviewExperiment-master\procedure","no","mono","no","24","no","black","no","yes","1050","legacy","12","15","C:/Users/Kristen/Documents/opPreviewExperiment-master/procedure/subject-6.csv","legacy","Kafkaesque Koffka","3.2.6","add","0","l","NA","NA","b","a","10694","NA","NA","156","10694","2","1756","legacy","large","1024","2","48000","-16","experiment","9_7_add_FI.jpg","6","even","legacy","109962","NA","70821","NA","NA","2890","NA","2905","60127","109962","112885","3063","57539","2891","mousetracking operator preview effect","0","0","0","no","false","no","1680"
"neutral","undefined","1","undefined","undefined","white","no","legacy","legacy","legacy","0","relative","undefined","undefined","13","NA","0","0","0","0","0","0","0","29","29","0","15","0","no","03/09/19 16:29:45","A simple template for the mouse-tracking paradigm","yes","Experiment-TF.osexp","C:\Users\Kristen\Documents\opPreviewExperiment-master\procedure","no","mono","no","24","no","black","no","yes","1050","legacy","13","15","C:/Users/Kristen/Documents/opPreviewExperiment-master/procedure/subject-6.csv","legacy","Kafkaesque Koffka","3.2.6","add","0","a","NA","NA","b","a","10694","NA","NA","156","10694","2","5542","legacy","large","1024","2","48000","-16","experiment","6_8_add_true.jpg","6","even","legacy","112916","NA","70821","NA","NA","2890","NA","2905","60127","112916","119429","3063","57539","2891","mousetracking operator preview effect","0","0","0","no","true","no","1680"
"negative","undefined","1","undefined","undefined","white","no","legacy","legacy","legacy","0","relative","undefined","undefined","14","NA","0","0","0","0","0","0","0","30","30","0","15","0","no","03/09/19 16:29:45","A simple template for the mouse-tracking paradigm","yes","Experiment-TF.osexp","C:\Users\Kristen\Documents\opPreviewExperiment-master\procedure","no","mono","no","24","no","black","no","yes","1050","legacy","14","15","C:/Users/Kristen/Documents/opPreviewExperiment-master/procedure/subject-6.csv","legacy","Kafkaesque Koffka","3.2.6","mult","0","a","NA","NA","b","a","10694","NA","NA","156","10694","2","1671","legacy","small","1024","2","48000","-16","experiment","5_3_mult_true.jpg","6","even","legacy","119449","NA","70821","NA","NA","2890","NA","2905","60127","119449","122262","3063","57539","2891","mousetracking operator preview effect","0","0","0","no","true","no","1680"
"negative","undefined","1","undefined","undefined","white","no","legacy","legacy","legacy","0","relative","undefined","undefined","15","NA","0","0","0","0","0","0","0","31","31","0","15","0","no","03/09/19 16:29:45","A simple template for the mouse-tracking paradigm","yes","Experiment-TF.osexp","C:\Users\Kristen\Documents\opPreviewExperiment-master\procedure","no","mono","no","24","no","black","no","yes","1050","legacy","15","15","C:/Users/Kristen/Documents/opPreviewExperiment-master/procedure/subject-6.csv","legacy","Kafkaesque Koffka","3.2.6","add","0","l","NA","NA","b","a","10694","NA","NA","156","10694","2","2775","legacy","small","1024","2","48000","-16","experiment","5_3_add_FI.jpg","6","even","legacy","122284","NA","70821","NA","NA","2890","NA","2905","60127","122284","126212","3063","57539","2891","mousetracking operator preview effect","0","0","0","no","false","no","1680"
"negative","undefined","1","undefined","undefined","white","no","legacy","legacy","legacy","0","relative","undefined","undefined","16","NA","0","0","0","0","0","0","0","32","32","0","15","0","no","03/09/19 16:29:45","A simple template for the mouse-tracking paradigm","yes","Experiment-TF.osexp","C:\Users\Kristen\Documents\opPreviewExperiment-master\procedure","no","mono","no","24","no","black","no","yes","1050","legacy","16","15","C:/Users/Kristen/Documents/opPreviewExperiment-master/procedure/subject-6.csv","legacy","Kafkaesque Koffka","3.2.6","add","0","l","NA","NA","b","a","10694","NA","NA","156","10694","2","1872","legacy","large","1024","2","48000","-16","experiment","4_9_add_FI.jpg","6","even","legacy","126233","NA","70821","NA","NA","2890","NA","2905","60127","126233","129226","3063","57539","2891","mousetracking operator preview effect","0","0","0","no","false","no","1680"
"neutral","undefined","1","undefined","undefined","white","no","legacy","legacy","legacy","0","relative","undefined","undefined","17","NA","0","0","0","0","0","0","0","33","33","0","15","0","no","03/09/19 16:29:45","A simple template for the mouse-tracking paradigm","yes","Experiment-TF.osexp","C:\Users\Kristen\Documents\opPreviewExperiment-master\procedure","no","mono","no","24","no","black","no","yes","1050","legacy","17","15","C:/Users/Kristen/Documents/opPreviewExperiment-master/procedure/subject-6.csv","legacy","Kafkaesque Koffka","3.2.6","add","0","a","NA","NA","b","a","10694","NA","NA","156","10694","2","3682","legacy","large","1024","2","48000","-16","experiment","4_9_add_true.jpg","6","even","legacy","129246","NA","70821","NA","NA","2890","NA","2905","60127","129246","133902","3063","57539","2891","mousetracking operator preview effect","0","0","0","no","true","no","1680"
"negative","undefined","1","undefined","undefined","white","no","legacy","legacy","legacy","0","relative","undefined","undefined","18","NA","0","0","0","0","0","0","0","34","34","0","15","0","no","03/09/19 16:29:45","A simple template for the mouse-tracking paradigm","yes","Experiment-TF.osexp","C:\Users\Kristen\Documents\opPreviewExperiment-master\procedure","no","mono","no","24","no","black","no","yes","1050","legacy","18","15","C:/Users/Kristen/Documents/opPreviewExperiment-master/procedure/subject-6.csv","legacy","Kafkaesque Koffka","3.2.6","mult","0","a","NA","NA","b","a","10694","NA","NA","156","10694","2","1544","legacy","large","1024","2","48000","-16","experiment","8_4_mult_true.jpg","6","even","legacy","133935","NA","70821","NA","NA","2890","NA","2905","60127","133935","136624","3063","57539","2891","mousetracking operator preview effect","0","0","0","no","true","no","1680"
"neutral","undefined","1","undefined","undefined","white","no","legacy","legacy","legacy","0","relative","undefined","undefined","19","NA","0","0","0","0","0","0","0","35","35","0","15","0","no","03/09/19 16:29:45","A simple template for the mouse-tracking paradigm","yes","Experiment-TF.osexp","C:\Users\Kristen\Documents\opPreviewExperiment-master\procedure","no","mono","no","24","no","black","no","yes","1050","legacy","19","15","C:/Users/Kristen/Documents/opPreviewExperiment-master/procedure/subject-6.csv","legacy","Kafkaesque Koffka","3.2.6","mult","0","a","NA","NA","b","a","10694","NA","NA","156","10694","2","5075","legacy","large","1024","2","48000","-16","experiment","4_9_mult_true.jpg","6","even","legacy","136645","NA","70821","NA","NA","2890","NA","2905","60127","136645","142735","3063","57539","2891","mousetracking operator preview effect","0","0","0","no","true","no","1680"
"negative","undefined","1","undefined","undefined","white","no","legacy","legacy","legacy","0","relative","undefined","undefined","20","NA","0","0","0","0","0","0","0","36","36","0","15","0","no","03/09/19 16:29:45","A simple template for the mouse-tracking paradigm","yes","Experiment-TF.osexp","C:\Users\Kristen\Documents\opPreviewExperiment-master\procedure","no","mono","no","24","no","black","no","yes","1050","legacy","20","15","C:/Users/Kristen/Documents/opPreviewExperiment-master/procedure/subject-6.csv","legacy","Kafkaesque Koffka","3.2.6","add","0","a","NA","NA","b","a","10694","NA","NA","156","10694","2","1229","legacy","small","1024","2","48000","-16","experiment","8_2_add_true.jpg","6","even","legacy","142876","NA","70821","NA","NA","2890","NA","2905","60127","142876","145276","3063","57539","2891","mousetracking operator preview effect","0","0","0","no","true","no","1680"
"neutral","undefined","1","undefined","undefined","white","no","legacy","legacy","legacy","0","relative","undefined","undefined","21","NA","0","0","0","0","0","0","0","37","37","0","15","0","no","03/09/19 16:29:45","A simple template for the mouse-tracking paradigm","yes","Experiment-TF.osexp","C:\Users\Kristen\Documents\opPreviewExperiment-master\procedure","no","mono","no","24","no","black","no","yes","1050","legacy","21","15","C:/Users/Kristen/Documents/opPreviewExperiment-master/procedure/subject-6.csv","legacy","Kafkaesque Koffka","3.2.6","mult","0","l","NA","NA","b","a","10694","NA","NA","156","10694","2","2044","legacy","small","1024","2","48000","-16","experiment","8_2_mult_FNI.jpg","6","even","legacy","145436","NA","70821","NA","NA","2890","NA","2905","60127","145437","148443","3063","57539","2891","mousetracking operator preview effect","0","0","0","no","false","no","1680"
"neutral","undefined","1","undefined","undefined","white","no","legacy","legacy","legacy","0","relative","undefined","undefined","22","NA","0","0","0","0","0","0","0","38","38","0","15","0","no","03/09/19 16:29:45","A simple template for the mouse-tracking paradigm","yes","Experiment-TF.osexp","C:\Users\Kristen\Documents\opPreviewExperiment-master\procedure","no","mono","no","24","no","black","no","yes","1050","legacy","22","15","C:/Users/Kristen/Documents/opPreviewExperiment-master/procedure/subject-6.csv","legacy","Kafkaesque Koffka","3.2.6","add","0","l","NA","NA","b","a","10694","NA","NA","156","10694","2","4021","legacy","large","1024","2","48000","-16","experiment","8_4_add_FI.jpg","6","even","legacy","148462","NA","70821","NA","NA","2890","NA","2905","60127","148462","153446","3063","57539","2891","mousetracking operator preview effect","0","0","0","no","false","no","1680"
"neutral","undefined","1","undefined","undefined","white","no","legacy","legacy","legacy","0","relative","undefined","undefined","23","NA","0","0","0","0","0","0","0","39","39","0","15","0","no","03/09/19 16:29:45","A simple template for the mouse-tracking paradigm","yes","Experiment-TF.osexp","C:\Users\Kristen\Documents\opPreviewExperiment-master\procedure","no","mono","no","24","no","black","no","yes","1050","legacy","23","15","C:/Users/Kristen/Documents/opPreviewExperiment-master/procedure/subject-6.csv","legacy","Kafkaesque Koffka","3.2.6","mult","0","a","NA","NA","b","a","10694","NA","NA","156","10694","2","3308","legacy","small","1024","2","48000","-16","experiment","3_6_mult_true.jpg","6","even","legacy","153463","NA","70821","NA","NA","2890","NA","2905","60127","153463","157726","3063","57539","2891","mousetracking operator preview effect","0","0","0","no","true","no","1680"
"negative","undefined","1","undefined","undefined","white","no","legacy","legacy","legacy","0","relative","undefined","undefined","24","NA","0","0","0","0","0","0","0","40","40","0","15","0","no","03/09/19 16:29:45","A simple template for the mouse-tracking paradigm","yes","Experiment-TF.osexp","C:\Users\Kristen\Documents\opPreviewExperiment-master\procedure","no","mono","no","24","no","black","no","yes","1050","legacy","24","15","C:/Users/Kristen/Documents/opPreviewExperiment-master/procedure/subject-6.csv","legacy","Kafkaesque Koffka","3.2.6","mult","0","l","NA","NA","b","a","10694","NA","NA","156","10694","2","2129","legacy","large","1024","2","48000","-16","experiment","8_4_mult_FI.jpg","6","even","legacy","157754","NA","70821","NA","NA","2890","NA","2905","60127","157755","161002","3063","57539","2891","mousetracking operator preview effect","0","0","0","no","false","no","1680"
"neutral","undefined","1","undefined","undefined","white","no","legacy","legacy","legacy","0","relative","undefined","undefined","25","NA","0","0","0","0","0","0","0","41","41","0","15","0","no","03/09/19 16:29:45","A simple template for the mouse-tracking paradigm","yes","Experiment-TF.osexp","C:\Users\Kristen\Documents\opPreviewExperiment-master\procedure","no","mono","no","24","no","black","no","yes","1050","legacy","25","15","C:/Users/Kristen/Documents/opPreviewExperiment-master/procedure/subject-6.csv","legacy","Kafkaesque Koffka","3.2.6","mult","0","l","NA","NA","b","a","10694","NA","NA","156","10694","2","3686","legacy","large","1024","2","48000","-16","experiment","6_8_mult_FNI.jpg","6","even","legacy","161023","NA","70821","NA","NA","2890","NA","2905","60127","161023","165706","3063","57539","2891","mousetracking operator preview effect","0","0","0","no","false","no","1680"
"neutral","undefined","1","undefined","undefined","white","no","legacy","legacy","legacy","0","relative","undefined","undefined","26","NA","0","0","0","0","0","0","0","42","42","0","15","0","no","03/09/19 16:29:45","A simple template for the mouse-tracking paradigm","yes","Experiment-TF.osexp","C:\Users\Kristen\Documents\opPreviewExperiment-master\procedure","no","mono","no","24","no","black","no","yes","1050","legacy","26","15","C:/Users/Kristen/Documents/opPreviewExperiment-master/procedure/subject-6.csv","legacy","Kafkaesque Koffka","3.2.6","mult","0","a","NA","NA","b","a","10694","NA","NA","156","10694","2","1460","legacy","large","1024","2","48000","-16","experiment","6_8_mult_true.jpg","6","even","legacy","165727","NA","70821","NA","NA","2890","NA","2905","60127","165727","168177","3063","57539","2891","mousetracking operator preview effect","0","0","0","no","true","no","1680"
"neutral","undefined","1","undefined","undefined","white","no","legacy","legacy","legacy","0","relative","undefined","undefined","27","NA","0","0","0","0","0","0","0","43","43","0","15","0","no","03/09/19 16:29:45","A simple template for the mouse-tracking paradigm","yes","Experiment-TF.osexp","C:\Users\Kristen\Documents\opPreviewExperiment-master\procedure","no","mono","no","24","no","black","no","yes","1050","legacy","27","15","C:/Users/Kristen/Documents/opPreviewExperiment-master/procedure/subject-6.csv","legacy","Kafkaesque Koffka","3.2.6","mult","0","l","NA","NA","b","a","10694","NA","NA","156","10694","2","1970","legacy","small","1024","2","48000","-16","experiment","3_6_mult_FNI.jpg","6","even","legacy","168190","NA","70821","NA","NA","2890","NA","2905","60127","168190","171137","3063","57539","2891","mousetracking operator preview effect","0","0","0","no","false","no","1680"
"negative","undefined","1","undefined","undefined","white","no","legacy","legacy","legacy","0","relative","undefined","undefined","28","NA","0","0","0","0","0","0","0","44","44","0","15","0","no","03/09/19 16:29:45","A simple template for the mouse-tracking paradigm","yes","Experiment-TF.osexp","C:\Users\Kristen\Documents\opPreviewExperiment-master\procedure","no","mono","no","24","no","black","no","yes","1050","legacy","28","15","C:/Users/Kristen/Documents/opPreviewExperiment-master/procedure/subject-6.csv","legacy","Kafkaesque Koffka","3.2.6","add","0","l","NA","NA","b","a","10694","NA","NA","156","10694","2","4290","legacy","large","1024","2","48000","-16","experiment","8_4_add_FI.jpg","6","even","legacy","171159","NA","70821","NA","NA","2890","NA","2905","60127","171159","176570","3063","57539","2891","mousetracking operator preview effect","0","0","0","no","false","no","1680"
"neutral","undefined","1","undefined","undefined","white","no","legacy","legacy","legacy","0","relative","undefined","undefined","29","NA","0","0","0","0","0","0","0","45","45","0","15","0","no","03/09/19 16:29:45","A simple template for the mouse-tracking paradigm","yes","Experiment-TF.osexp","C:\Users\Kristen\Documents\opPreviewExperiment-master\procedure","no","mono","no","24","no","black","no","yes","1050","legacy","29","15","C:/Users/Kristen/Documents/opPreviewExperiment-master/procedure/subject-6.csv","legacy","Kafkaesque Koffka","3.2.6","add","0","a","NA","NA","b","a","10694","NA","NA","156","10694","2","3619","legacy","large","1024","2","48000","-16","experiment","6_8_add_true.jpg","6","even","legacy","176600","NA","70821","NA","NA","2890","NA","2905","60127","176600","181192","3063","57539","2891","mousetracking operator preview effect","0","0","0","no","true","no","1680"
"negative","undefined","1","undefined","undefined","white","no","legacy","legacy","legacy","0","relative","undefined","undefined","30","NA","0","0","0","0","0","0","0","46","46","0","15","0","no","03/09/19 16:29:45","A simple template for the mouse-tracking paradigm","yes","Experiment-TF.osexp","C:\Users\Kristen\Documents\opPreviewExperiment-master\procedure","no","mono","no","24","no","black","no","yes","1050","legacy","30","15","C:/Users/Kristen/Documents/opPreviewExperiment-master/procedure/subject-6.csv","legacy","Kafkaesque Koffka","3.2.6","mult","0","a","NA","NA","b","a","10694","NA","NA","156","10694","2","3334","legacy","large","1024","2","48000","-16","experiment","6_8_mult_true.jpg","6","even","legacy","181213","NA","70821","NA","NA","2890","NA","2905","60127","181213","185676","3063","57539","2891","mousetracking operator preview effect","0","0","0","no","true","no","1680"
"neutral","undefined","1","undefined","undefined","white","no","legacy","legacy","legacy","0","relative","undefined","undefined","31","NA","0","0","0","0","0","0","0","47","47","0","15","0","no","03/09/19 16:29:45","A simple template for the mouse-tracking paradigm","yes","Experiment-TF.osexp","C:\Users\Kristen\Documents\opPreviewExperiment-master\procedure","no","mono","no","24","no","black","no","yes","1050","legacy","31","15","C:/Users/Kristen/Documents/opPreviewExperiment-master/procedure/subject-6.csv","legacy","Kafkaesque Koffka","3.2.6","add","0","l","NA","NA","b","a","10694","NA","NA","156","10694","2","3478","legacy","large","1024","2","48000","-16","experiment","4_9_add_FNI.jpg","6","even","legacy","185703","NA","70821","NA","NA","2890","NA","2905","60127","185703","190179","3063","57539","2891","mousetracking operator preview effect","0","0","0","no","false","no","1680"
"negative","undefined","1","undefined","undefined","white","no","legacy","legacy","legacy","0","relative","undefined","undefined","32","NA","0","0","0","0","0","0","0","48","48","0","15","0","no","03/09/19 16:29:45","A simple template for the mouse-tracking paradigm","yes","Experiment-TF.osexp","C:\Users\Kristen\Documents\opPreviewExperiment-master\procedure","no","mono","no","24","no","black","no","yes","1050","legacy","32","15","C:/Users/Kristen/Documents/opPreviewExperiment-master/procedure/subject-6.csv","legacy","Kafkaesque Koffka","3.2.6","mult","0","l","NA","NA","b","a","10694","NA","NA","156","10694","2","1481","legacy","large","1024","2","48000","-16","experiment","9_7_mult_FI.jpg","6","even","legacy","190202","NA","70821","NA","NA","2890","NA","2905","60127","190202","192842","3063","57539","2891","mousetracking operator preview effect","0","0","0","no","false","no","1680"
"neutral","undefined","1","undefined","undefined","white","no","legacy","legacy","legacy","0","relative","undefined","undefined","33","NA","0","0","0","0","0","0","0","49","49","0","15","0","no","03/09/19 16:29:45","A simple template for the mouse-tracking paradigm","yes","Experiment-TF.osexp","C:\Users\Kristen\Documents\opPreviewExperiment-master\procedure","no","mono","no","24","no","black","no","yes","1050","legacy","33","15","C:/Users/Kristen/Documents/opPreviewExperiment-master/procedure/subject-6.csv","legacy","Kafkaesque Koffka","3.2.6","add","0","a","NA","NA","b","a","10694","NA","NA","156","10694","2","1630","legacy","large","1024","2","48000","-16","experiment","8_4_add_true.jpg","6","even","legacy","192862","NA","70821","NA","NA","2890","NA","2905","60127","192862","195465","3063","57539","2891","mousetracking operator preview effect","0","0","0","no","true","no","1680"
"negative","undefined","1","undefined","undefined","white","no","legacy","legacy","legacy","0","relative","undefined","undefined","34","NA","0","0","0","0","0","0","0","50","50","0","15","0","no","03/09/19 16:29:45","A simple template for the mouse-tracking paradigm","yes","Experiment-TF.osexp","C:\Users\Kristen\Documents\opPreviewExperiment-master\procedure","no","mono","no","24","no","black","no","yes","1050","legacy","34","15","C:/Users/Kristen/Documents/opPreviewExperiment-master/procedure/subject-6.csv","legacy","Kafkaesque Koffka","3.2.6","mult","0","a","NA","NA","b","a","10694","NA","NA","156","10694","2","2083","legacy","small","1024","2","48000","-16","experiment","2_7_mult_true.jpg","6","even","legacy","195481","NA","70821","NA","NA","2890","NA","2905","60127","195482","198697","3063","57539","2891","mousetracking operator preview effect","0","0","0","no","true","no","1680"
"negative","undefined","1","undefined","undefined","white","no","legacy","legacy","legacy","0","relative","undefined","undefined","35","NA","0","0","0","0","0","0","0","51","51","0","15","0","no","03/09/19 16:29:45","A simple template for the mouse-tracking paradigm","yes","Experiment-TF.osexp","C:\Users\Kristen\Documents\opPreviewExperiment-master\procedure","no","mono","no","24","no","black","no","yes","1050","legacy","35","15","C:/Users/Kristen/Documents/opPreviewExperiment-master/procedure/subject-6.csv","legacy","Kafkaesque Koffka","3.2.6","add","0","a","NA","NA","b","a","10694","NA","NA","156","10694","2","1936","legacy","large","1024","2","48000","-16","experiment","9_7_add_true.jpg","6","even","legacy","198717","NA","70821","NA","NA","2890","NA","2905","60127","198717","201809","3063","57539","2891","mousetracking operator preview effect","0","0","0","no","true","no","1680"
"neutral","undefined","1","undefined","undefined","white","no","legacy","legacy","legacy","0","relative","undefined","undefined","36","NA","0","0","0","0","0","0","0","52","52","0","15","0","no","03/09/19 16:29:45","A simple template for the mouse-tracking paradigm","yes","Experiment-TF.osexp","C:\Users\Kristen\Documents\opPreviewExperiment-master\procedure","no","mono","no","24","no","black","no","yes","1050","legacy","36","15","C:/Users/Kristen/Documents/opPreviewExperiment-master/procedure/subject-6.csv","legacy","Kafkaesque Koffka","3.2.6","add","0","l","NA","NA","b","a","10694","NA","NA","156","10694","2","1464","legacy","large","1024","2","48000","-16","experiment","9_7_add_FI.jpg","6","even","legacy","201830","NA","70821","NA","NA","2890","NA","2905","60127","201830","204269","3063","57539","2891","mousetracking operator preview effect","0","0","0","no","false","no","1680"
"negative","undefined","1","undefined","undefined","white","no","legacy","legacy","legacy","0","relative","undefined","undefined","37","NA","0","0","0","0","0","0","0","53","53","0","15","0","no","03/09/19 16:29:45","A simple template for the mouse-tracking paradigm","yes","Experiment-TF.osexp","C:\Users\Kristen\Documents\opPreviewExperiment-master\procedure","no","mono","no","24","no","black","no","yes","1050","legacy","37","15","C:/Users/Kristen/Documents/opPreviewExperiment-master/procedure/subject-6.csv","legacy","Kafkaesque Koffka","3.2.6","add","0","a","NA","NA","b","a","10694","NA","NA","156","10694","2","2526","legacy","large","1024","2","48000","-16","experiment","9_7_add_true.jpg","6","even","legacy","204300","NA","70821","NA","NA","2890","NA","2905","60127","204300","207961","3063","57539","2891","mousetracking operator preview effect","0","0","0","no","true","no","1680"
"neutral","undefined","1","undefined","undefined","white","no","legacy","legacy","legacy","0","relative","undefined","undefined","38","NA","0","0","0","0","0","0","0","54","54","0","15","0","no","03/09/19 16:29:45","A simple template for the mouse-tracking paradigm","yes","Experiment-TF.osexp","C:\Users\Kristen\Documents\opPreviewExperiment-master\procedure","no","mono","no","24","no","black","no","yes","1050","legacy","38","15","C:/Users/Kristen/Documents/opPreviewExperiment-master/procedure/subject-6.csv","legacy","Kafkaesque Koffka","3.2.6","mult","0","l","NA","NA","b","a","10694","NA","NA","156","10694","2","1808","legacy","large","1024","2","48000","-16","experiment","8_4_mult_FI.jpg","6","even","legacy","207975","NA","70821","NA","NA","2890","NA","2905","60127","207975","210752","3063","57539","2891","mousetracking operator preview effect","0","0","0","no","false","no","1680"
"negative","undefined","1","undefined","undefined","white","no","legacy","legacy","legacy","0","relative","undefined","undefined","39","NA","0","0","0","0","0","0","0","55","55","0","15","0","no","03/09/19 16:29:45","A simple template for the mouse-tracking paradigm","yes","Experiment-TF.osexp","C:\Users\Kristen\Documents\opPreviewExperiment-master\procedure","no","mono","no","24","no","black","no","yes","1050","legacy","39","15","C:/Users/Kristen/Documents/opPreviewExperiment-master/procedure/subject-6.csv","legacy","Kafkaesque Koffka","3.2.6","add","0","l","NA","NA","b","a","10694","NA","NA","156","10694","2","2747","legacy","large","1024","2","48000","-16","experiment","4_9_add_FNI.jpg","6","even","legacy","210766","NA","70821","NA","NA","2890","NA","2905","60127","210767","214658","3063","57539","2891","mousetracking operator preview effect","0","0","0","no","false","no","1680"
"neutral","undefined","1","undefined","undefined","white","no","legacy","legacy","legacy","0","relative","undefined","undefined","40","NA","0","0","0","0","0","0","0","56","56","0","15","0","no","03/09/19 16:29:45","A simple template for the mouse-tracking paradigm","yes","Experiment-TF.osexp","C:\Users\Kristen\Documents\opPreviewExperiment-master\procedure","no","mono","no","24","no","black","no","yes","1050","legacy","40","15","C:/Users/Kristen/Documents/opPreviewExperiment-master/procedure/subject-6.csv","legacy","Kafkaesque Koffka","3.2.6","mult","0","l","NA","NA","b","a","10694","NA","NA","156","10694","2","7369","legacy","large","1024","2","48000","-16","experiment","4_9_mult_FNI.jpg","6","even","legacy","214681","NA","70821","NA","NA","2890","NA","2905","60127","214681","223032","3063","57539","2891","mousetracking operator preview effect","0","0","0","no","false","no","1680"
"negative","undefined","1","undefined","undefined","white","no","legacy","legacy","legacy","0","relative","undefined","undefined","41","NA","0","0","0","0","0","0","0","57","57","0","15","0","no","03/09/19 16:29:45","A simple template for the mouse-tracking paradigm","yes","Experiment-TF.osexp","C:\Users\Kristen\Documents\opPreviewExperiment-master\procedure","no","mono","no","24","no","black","no","yes","1050","legacy","41","15","C:/Users/Kristen/Documents/opPreviewExperiment-master/procedure/subject-6.csv","legacy","Kafkaesque Koffka","3.2.6","add","0","a","NA","NA","b","a","10694","NA","NA","156","10694","2","1146","legacy","small","1024","2","48000","-16","experiment","8_2_add_true.jpg","6","even","legacy","223053","NA","70821","NA","NA","2890","NA","2905","60127","223053","225340","3063","57539","2891","mousetracking operator preview effect","0","0","0","no","true","no","1680"
"neutral","undefined","1","undefined","undefined","white","no","legacy","legacy","legacy","0","relative","undefined","undefined","42","NA","0","0","0","0","0","0","0","58","58","0","15","0","no","03/09/19 16:29:45","A simple template for the mouse-tracking paradigm","yes","Experiment-TF.osexp","C:\Users\Kristen\Documents\opPreviewExperiment-master\procedure","no","mono","no","24","no","black","no","yes","1050","legacy","42","15","C:/Users/Kristen/Documents/opPreviewExperiment-master/procedure/subject-6.csv","legacy","Kafkaesque Koffka","3.2.6","mult","0","a","NA","NA","b","a","10694","NA","NA","156","10694","2","1996","legacy","small","1024","2","48000","-16","experiment","2_7_mult_true.jpg","6","even","legacy","225366","NA","70821","NA","NA","2890","NA","2905","60127","225366","228343","3063","57539","2891","mousetracking operator preview effect","0","0","0","no","true","no","1680"
"negative","undefined","1","undefined","undefined","white","no","legacy","legacy","legacy","0","relative","undefined","undefined","43","NA","0","0","0","0","0","0","0","59","59","0","15","0","no","03/09/19 16:29:45","A simple template for the mouse-tracking paradigm","yes","Experiment-TF.osexp","C:\Users\Kristen\Documents\opPreviewExperiment-master\procedure","no","mono","no","24","no","black","no","yes","1050","legacy","43","15","C:/Users/Kristen/Documents/opPreviewExperiment-master/procedure/subject-6.csv","legacy","Kafkaesque Koffka","3.2.6","mult","0","a","NA","NA","b","a","10694","NA","NA","156","10694","2","3493","legacy","small","1024","2","48000","-16","experiment","8_2_mult_true.jpg","6","even","legacy","228365","NA","70821","NA","NA","2890","NA","2905","60127","228365","233031","3063","57539","2891","mousetracking operator preview effect","0","0","0","no","true","no","1680"
"neutral","undefined","1","undefined","undefined","white","no","legacy","legacy","legacy","0","relative","undefined","undefined","44","NA","0","0","0","0","0","0","0","60","60","0","15","0","no","03/09/19 16:29:45","A simple template for the mouse-tracking paradigm","yes","Experiment-TF.osexp","C:\Users\Kristen\Documents\opPreviewExperiment-master\procedure","no","mono","no","24","no","black","no","yes","1050","legacy","44","15","C:/Users/Kristen/Documents/opPreviewExperiment-master/procedure/subject-6.csv","legacy","Kafkaesque Koffka","3.2.6","mult","0","a","NA","NA","b","a","10694","NA","NA","156","10694","2","2294","legacy","small","1024","2","48000","-16","experiment","5_3_mult_true.jpg","6","even","legacy","233058","NA","70821","NA","NA","2890","NA","2905","60127","233059","236326","3063","57539","2891","mousetracking operator preview effect","0","0","0","no","true","no","1680"
"negative","undefined","1","undefined","undefined","white","no","legacy","legacy","legacy","0","relative","undefined","undefined","45","NA","0","0","0","0","0","0","0","61","61","0","15","0","no","03/09/19 16:29:45","A simple template for the mouse-tracking paradigm","yes","Experiment-TF.osexp","C:\Users\Kristen\Documents\opPreviewExperiment-master\procedure","no","mono","no","24","no","black","no","yes","1050","legacy","45","15","C:/Users/Kristen/Documents/opPreviewExperiment-master/procedure/subject-6.csv","legacy","Kafkaesque Koffka","3.2.6","mult","0","l","NA","NA","b","a","10694","NA","NA","156","10694","2","1855","legacy","small","1024","2","48000","-16","experiment","2_7_mult_FI.jpg","6","even","legacy","236341","NA","70821","NA","NA","2890","NA","2905","60127","236341","239334","3063","57539","2891","mousetracking operator preview effect","0","0","0","no","false","no","1680"
"negative","undefined","1","undefined","undefined","white","no","legacy","legacy","legacy","0","relative","undefined","undefined","46","NA","0","0","0","0","0","0","0","62","62","0","15","0","no","03/09/19 16:29:45","A simple template for the mouse-tracking paradigm","yes","Experiment-TF.osexp","C:\Users\Kristen\Documents\opPreviewExperiment-master\procedure","no","mono","no","24","no","black","no","yes","1050","legacy","46","15","C:/Users/Kristen/Documents/opPreviewExperiment-master/procedure/subject-6.csv","legacy","Kafkaesque Koffka","3.2.6","mult","0","l","NA","NA","b","a","10694","NA","NA","156","10694","2","1772","legacy","small","1024","2","48000","-16","experiment","5_3_mult_FI.jpg","6","even","legacy","239354","NA","70821","NA","NA","2890","NA","2905","60127","239354","242243","3063","57539","2891","mousetracking operator preview effect","0","0","0","no","false","no","1680"
"neutral","undefined","1","undefined","undefined","white","no","legacy","legacy","legacy","0","relative","undefined","undefined","47","NA","0","0","0","0","0","0","0","63","63","0","15","0","no","03/09/19 16:29:45","A simple template for the mouse-tracking paradigm","yes","Experiment-TF.osexp","C:\Users\Kristen\Documents\opPreviewExperiment-master\procedure","no","mono","no","24","no","black","no","yes","1050","legacy","47","15","C:/Users/Kristen/Documents/opPreviewExperiment-master/procedure/subject-6.csv","legacy","Kafkaesque Koffka","3.2.6","mult","0","l","NA","NA","b","a","10694","NA","NA","156","10694","2","8842","legacy","large","1024","2","48000","-16","experiment","9_7_mult_FNI.jpg","6","even","legacy","242266","NA","70821","NA","NA","2890","NA","2905","60127","242266","252098","3063","57539","2891","mousetracking operator preview effect","0","0","0","no","false","no","1680"
"neutral","undefined","1","undefined","undefined","white","no","legacy","legacy","legacy","0","relative","undefined","undefined","48","NA","0","0","0","0","0","0","0","64","64","0","15","0","no","03/09/19 16:29:45","A simple template for the mouse-tracking paradigm","yes","Experiment-TF.osexp","C:\Users\Kristen\Documents\opPreviewExperiment-master\procedure","no","mono","no","24","no","black","no","yes","1050","legacy","48","15","C:/Users/Kristen/Documents/opPreviewExperiment-master/procedure/subject-6.csv","legacy","Kafkaesque Koffka","3.2.6","add","0","l","NA","NA","b","a","10694","NA","NA","156","10694","2","3404","legacy","small","1024","2","48000","-16","experiment","5_3_add_FNI.jpg","6","even","legacy","252122","NA","70821","NA","NA","2890","NA","2905","60127","252122","256519","3063","57539","2891","mousetracking operator preview effect","0","0","0","no","false","no","1680"
"neutral","undefined","1","undefined","undefined","white","no","legacy","legacy","legacy","0","relative","undefined","undefined","49","NA","0","0","0","0","0","0","0","65","65","0","15","0","no","03/09/19 16:29:45","A simple template for the mouse-tracking paradigm","yes","Experiment-TF.osexp","C:\Users\Kristen\Documents\opPreviewExperiment-master\procedure","no","mono","no","24","no","black","no","yes","1050","legacy","49","15","C:/Users/Kristen/Documents/opPreviewExperiment-master/procedure/subject-6.csv","legacy","Kafkaesque Koffka","3.2.6","mult","0","l","NA","NA","b","a","10694","NA","NA","156","10694","2","1541","legacy","small","1024","2","48000","-16","experiment","2_7_mult_FNI.jpg","6","even","legacy","256546","NA","70821","NA","NA","2890","NA","2905","60127","256546","259080","3063","57539","2891","mousetracking operator preview effect","0","0","0","no","false","no","1680"
"neutral","undefined","1","undefined","undefined","white","no","legacy","legacy","legacy","0","relative","undefined","undefined","50","NA","0","0","0","0","0","0","0","66","66","0","15","0","no","03/09/19 16:29:45","A simple template for the mouse-tracking paradigm","yes","Experiment-TF.osexp","C:\Users\Kristen\Documents\opPreviewExperiment-master\procedure","no","mono","no","24","no","black","no","yes","1050","legacy","50","15","C:/Users/Kristen/Documents/opPreviewExperiment-master/procedure/subject-6.csv","legacy","Kafkaesque Koffka","3.2.6","mult","0","l","NA","NA","b","a","10694","NA","NA","156","10694","2","2669","legacy","small","1024","2","48000","-16","experiment","5_3_mult_FI.jpg","6","even","legacy","259101","NA","70821","NA","NA","2890","NA","2905","60127","259101","262742","3063","57539","2891","mousetracking operator preview effect","0","0","0","no","false","no","1680"
"neutral","undefined","1","undefined","undefined","white","no","legacy","legacy","legacy","0","relative","undefined","undefined","51","NA","0","0","0","0","0","0","0","67","67","0","15","0","no","03/09/19 16:29:45","A simple template for the mouse-tracking paradigm","yes","Experiment-TF.osexp","C:\Users\Kristen\Documents\opPreviewExperiment-master\procedure","no","mono","no","24","no","black","no","yes","1050","legacy","51","15","C:/Users/Kristen/Documents/opPreviewExperiment-master/procedure/subject-6.csv","legacy","Kafkaesque Koffka","3.2.6","add","0","l","NA","NA","b","a","10694","NA","NA","156","10694","2","3851","legacy","large","1024","2","48000","-16","experiment","8_4_add_FNI.jpg","6","even","legacy","262764","NA","70821","NA","NA","2890","NA","2905","60127","262764","267608","3063","57539","2891","mousetracking operator preview effect","0","0","0","no","false","no","1680"
"negative","undefined","1","undefined","undefined","white","no","legacy","legacy","legacy","0","relative","undefined","undefined","52","NA","0","0","0","0","0","0","0","68","68","0","15","0","no","03/09/19 16:29:45","A simple template for the mouse-tracking paradigm","yes","Experiment-TF.osexp","C:\Users\Kristen\Documents\opPreviewExperiment-master\procedure","no","mono","no","24","no","black","no","yes","1050","legacy","52","15","C:/Users/Kristen/Documents/opPreviewExperiment-master/procedure/subject-6.csv","legacy","Kafkaesque Koffka","3.2.6","add","0","l","NA","NA","b","a","10694","NA","NA","156","10694","2","2063","legacy","small","1024","2","48000","-16","experiment","5_3_add_FNI.jpg","6","even","legacy","267622","NA","70821","NA","NA","2890","NA","2905","60127","267622","270829","3063","57539","2891","mousetracking operator preview effect","0","0","0","no","false","no","1680"
"negative","undefined","1","undefined","undefined","white","no","legacy","legacy","legacy","0","relative","undefined","undefined","53","NA","0","0","0","0","0","0","0","69","69","0","15","0","no","03/09/19 16:29:45","A simple template for the mouse-tracking paradigm","yes","Experiment-TF.osexp","C:\Users\Kristen\Documents\opPreviewExperiment-master\procedure","no","mono","no","24","no","black","no","yes","1050","legacy","53","15","C:/Users/Kristen/Documents/opPreviewExperiment-master/procedure/subject-6.csv","legacy","Kafkaesque Koffka","3.2.6","add","0","a","NA","NA","b","a","10694","NA","NA","156","10694","2","1759","legacy","small","1024","2","48000","-16","experiment","2_7_add_true.jpg","6","even","legacy","270850","NA","70821","NA","NA","2890","NA","2905","60127","270850","273756","3063","57539","2891","mousetracking operator preview effect","0","0","0","no","true","no","1680"
"negative","undefined","1","undefined","undefined","white","no","legacy","legacy","legacy","0","relative","undefined","undefined","54","NA","0","0","0","0","0","0","0","70","70","0","15","0","no","03/09/19 16:29:45","A simple template for the mouse-tracking paradigm","yes","Experiment-TF.osexp","C:\Users\Kristen\Documents\opPreviewExperiment-master\procedure","no","mono","no","24","no","black","no","yes","1050","legacy","54","15","C:/Users/Kristen/Documents/opPreviewExperiment-master/procedure/subject-6.csv","legacy","Kafkaesque Koffka","3.2.6","mult","0","l","NA","NA","b","a","10694","NA","NA","156","10694","2","4911","legacy","large","1024","2","48000","-16","experiment","4_9_mult_FNI.jpg","6","even","legacy","273786","NA","70821","NA","NA","2890","NA","2905","60127","273786","279854","3063","57539","2891","mousetracking operator preview effect","0","0","0","no","false","no","1680"
"negative","undefined","1","undefined","undefined","white","no","legacy","legacy","legacy","0","relative","undefined","undefined","55","NA","0","0","0","0","0","0","0","71","71","0","15","0","no","03/09/19 16:29:45","A simple template for the mouse-tracking paradigm","yes","Experiment-TF.osexp","C:\Users\Kristen\Documents\opPreviewExperiment-master\procedure","no","mono","no","24","no","black","no","yes","1050","legacy","55","15","C:/Users/Kristen/Documents/opPreviewExperiment-master/procedure/subject-6.csv","legacy","Kafkaesque Koffka","3.2.6","mult","0","a","NA","NA","b","a","10694","NA","NA","156","10694","2","1175","legacy","large","1024","2","48000","-16","experiment","4_9_mult_true.jpg","6","even","legacy","279884","NA","70821","NA","NA","2890","NA","2905","60127","279884","282193","3063","57539","2891","mousetracking operator preview effect","0","0","0","no","true","no","1680"
"neutral","undefined","1","undefined","undefined","white","no","legacy","legacy","legacy","0","relative","undefined","undefined","56","NA","0","0","0","0","0","0","0","72","72","0","15","0","no","03/09/19 16:29:45","A simple template for the mouse-tracking paradigm","yes","Experiment-TF.osexp","C:\Users\Kristen\Documents\opPreviewExperiment-master\procedure","no","mono","no","24","no","black","no","yes","1050","legacy","56","15","C:/Users/Kristen/Documents/opPreviewExperiment-master/procedure/subject-6.csv","legacy","Kafkaesque Koffka","3.2.6","add","0","a","NA","NA","b","a","10694","NA","NA","156","10694","2","1271","legacy","small","1024","2","48000","-16","experiment","5_3_add_true.jpg","6","even","legacy","282213","NA","70821","NA","NA","2890","NA","2905","60127","282213","284472","3063","57539","2891","mousetracking operator preview effect","0","0","0","no","true","no","1680"
"negative","undefined","1","undefined","undefined","white","no","legacy","legacy","legacy","0","relative","undefined","undefined","57","NA","0","0","0","0","0","0","0","73","73","0","15","0","no","03/09/19 16:29:45","A simple template for the mouse-tracking paradigm","yes","Experiment-TF.osexp","C:\Users\Kristen\Documents\opPreviewExperiment-master\procedure","no","mono","no","24","no","black","no","yes","1050","legacy","57","15","C:/Users/Kristen/Documents/opPreviewExperiment-master/procedure/subject-6.csv","legacy","Kafkaesque Koffka","3.2.6","add","0","l","NA","NA","b","a","10694","NA","NA","156","10694","2","3028","legacy","small","1024","2","48000","-16","experiment","8_2_add_FNI.jpg","6","even","legacy","284503","NA","70821","NA","NA","2890","NA","2905","60127","284503","288701","3063","57539","2891","mousetracking operator preview effect","0","0","0","no","false","no","1680"
"negative","undefined","1","undefined","undefined","white","no","legacy","legacy","legacy","0","relative","undefined","undefined","58","NA","0","0","0","0","0","0","0","74","74","0","15","0","no","03/09/19 16:29:45","A simple template for the mouse-tracking paradigm","yes","Experiment-TF.osexp","C:\Users\Kristen\Documents\opPreviewExperiment-master\procedure","no","mono","no","24","no","black","no","yes","1050","legacy","58","15","C:/Users/Kristen/Documents/opPreviewExperiment-master/procedure/subject-6.csv","legacy","Kafkaesque Koffka","3.2.6","add","0","l","NA","NA","b","a","10694","NA","NA","156","10694","2","1766","legacy","small","1024","2","48000","-16","experiment","3_6_add_FI.jpg","6","even","legacy","288721","NA","70821","NA","NA","2890","NA","2905","60127","288721","291656","3063","57539","2891","mousetracking operator preview effect","0","0","0","no","false","no","1680"
"negative","undefined","1","undefined","undefined","white","no","legacy","legacy","legacy","0","relative","undefined","undefined","59","NA","0","0","0","0","0","0","0","75","75","0","15","0","no","03/09/19 16:29:45","A simple template for the mouse-tracking paradigm","yes","Experiment-TF.osexp","C:\Users\Kristen\Documents\opPreviewExperiment-master\procedure","no","mono","no","24","no","black","no","yes","1050","legacy","59","15","C:/Users/Kristen/Documents/opPreviewExperiment-master/procedure/subject-6.csv","legacy","Kafkaesque Koffka","3.2.6","mult","0","a","NA","NA","b","a","10694","NA","NA","156","10694","2","2157","legacy","small","1024","2","48000","-16","experiment","2_7_mult_true.jpg","6","even","legacy","291680","NA","70821","NA","NA","2890","NA","2905","60127","291680","294975","3063","57539","2891","mousetracking operator preview effect","0","0","0","no","true","no","1680"
"neutral","undefined","1","undefined","undefined","white","no","legacy","legacy","legacy","0","relative","undefined","undefined","60","NA","0","0","0","0","0","0","0","76","76","0","15","0","no","03/09/19 16:29:45","A simple template for the mouse-tracking paradigm","yes","Experiment-TF.osexp","C:\Users\Kristen\Documents\opPreviewExperiment-master\procedure","no","mono","no","24","no","black","no","yes","1050","legacy","60","15","C:/Users/Kristen/Documents/opPreviewExperiment-master/procedure/subject-6.csv","legacy","Kafkaesque Koffka","3.2.6","add","0","a","NA","NA","b","a","10694","NA","NA","156","10694","2","823","legacy","small","1024","2","48000","-16","experiment","8_2_add_true.jpg","6","even","legacy","294995","NA","70821","NA","NA","2890","NA","2905","60127","294995","296774","3063","57539","2891","mousetracking operator preview effect","0","0","0","no","true","no","1680"
"negative","undefined","1","undefined","undefined","white","no","legacy","legacy","legacy","0","relative","undefined","undefined","61","NA","0","0","0","0","0","0","0","77","77","0","15","0","no","03/09/19 16:29:45","A simple template for the mouse-tracking paradigm","yes","Experiment-TF.osexp","C:\Users\Kristen\Documents\opPreviewExperiment-master\procedure","no","mono","no","24","no","black","no","yes","1050","legacy","61","15","C:/Users/Kristen/Documents/opPreviewExperiment-master/procedure/subject-6.csv","legacy","Kafkaesque Koffka","3.2.6","add","0","a","NA","NA","b","a","10694","NA","NA","156","10694","2","1067","legacy","small","1024","2","48000","-16","experiment","5_3_add_true.jpg","6","even","legacy","296809","NA","70821","NA","NA","2890","NA","2905","60127","296809","299016","3063","57539","2891","mousetracking operator preview effect","0","0","0","no","true","no","1680"
"neutral","undefined","1","undefined","undefined","white","no","legacy","legacy","legacy","0","relative","undefined","undefined","62","NA","0","0","0","0","0","0","0","78","78","0","15","0","no","03/09/19 16:29:45","A simple template for the mouse-tracking paradigm","yes","Experiment-TF.osexp","C:\Users\Kristen\Documents\opPreviewExperiment-master\procedure","no","mono","no","24","no","black","no","yes","1050","legacy","62","15","C:/Users/Kristen/Documents/opPreviewExperiment-master/procedure/subject-6.csv","legacy","Kafkaesque Koffka","3.2.6","mult","0","l","NA","NA","b","a","10694","NA","NA","156","10694","2","1525","legacy","large","1024","2","48000","-16","experiment","8_4_mult_FNI.jpg","6","even","legacy","299038","NA","70821","NA","NA","2890","NA","2905","60127","299038","301553","3063","57539","2891","mousetracking operator preview effect","0","0","0","no","false","no","1680"
"negative","undefined","1","undefined","undefined","white","no","legacy","legacy","legacy","0","relative","undefined","undefined","63","NA","0","0","0","0","0","0","0","79","79","0","15","0","no","03/09/19 16:29:45","A simple template for the mouse-tracking paradigm","yes","Experiment-TF.osexp","C:\Users\Kristen\Documents\opPreviewExperiment-master\procedure","no","mono","no","24","no","black","no","yes","1050","legacy","63","15","C:/Users/Kristen/Documents/opPreviewExperiment-master/procedure/subject-6.csv","legacy","Kafkaesque Koffka","3.2.6","add","0","a","NA","NA","b","a","10694","NA","NA","156","10694","2","3452","legacy","large","1024","2","48000","-16","experiment","4_9_add_true.jpg","6","even","legacy","301567","NA","70821","NA","NA","2890","NA","2905","60127","301567","306122","3063","57539","2891","mousetracking operator preview effect","0","0","0","no","true","no","1680"
"neutral","undefined","1","undefined","undefined","white","no","legacy","legacy","legacy","0","relative","undefined","undefined","64","NA","0","0","0","0","0","0","0","80","80","0","15","0","no","03/09/19 16:29:45","A simple template for the mouse-tracking paradigm","yes","Experiment-TF.osexp","C:\Users\Kristen\Documents\opPreviewExperiment-master\procedure","no","mono","no","24","no","black","no","yes","1050","legacy","64","15","C:/Users/Kristen/Documents/opPreviewExperiment-master/procedure/subject-6.csv","legacy","Kafkaesque Koffka","3.2.6","add","0","a","NA","NA","b","a","10694","NA","NA","156","10694","2","1345","legacy","large","1024","2","48000","-16","experiment","9_7_add_true.jpg","6","even","legacy","306135","NA","70821","NA","NA","2890","NA","2905","60127","306135","308456","3063","57539","2891","mousetracking operator preview effect","0","0","0","no","true","no","1680"
"negative","undefined","1","undefined","undefined","white","no","legacy","legacy","legacy","0","relative","undefined","undefined","65","NA","0","0","0","0","0","0","0","81","81","0","15","0","no","03/09/19 16:29:45","A simple template for the mouse-tracking paradigm","yes","Experiment-TF.osexp","C:\Users\Kristen\Documents\opPreviewExperiment-master\procedure","no","mono","no","24","no","black","no","yes","1050","legacy","65","15","C:/Users/Kristen/Documents/opPreviewExperiment-master/procedure/subject-6.csv","legacy","Kafkaesque Koffka","3.2.6","add","0","a","NA","NA","b","a","10694","NA","NA","156","10694","2","2532","legacy","large","1024","2","48000","-16","experiment","6_8_add_true.jpg","6","even","legacy","308476","NA","70821","NA","NA","2890","NA","2905","60127","308476","312151","3063","57539","2891","mousetracking operator preview effect","0","0","0","no","true","no","1680"
"neutral","undefined","0","undefined","undefined","white","no","legacy","legacy","legacy","0","relative","undefined","undefined","66","NA","0","0","0","0","0","0","0","82","82","0","15","0","no","03/09/19 16:29:45","A simple template for the mouse-tracking paradigm","yes","Experiment-TF.osexp","C:\Users\Kristen\Documents\opPreviewExperiment-master\procedure","no","mono","no","24","no","black","no","yes","1050","legacy","66","15","C:/Users/Kristen/Documents/opPreviewExperiment-master/procedure/subject-6.csv","legacy","Kafkaesque Koffka","3.2.6","mult","0","a","NA","NA","b","a","10694","NA","NA","156","10694","2","1787","legacy","large","1024","2","48000","-16","experiment","6_8_mult_FI.jpg","6","even","legacy","312169","NA","70821","NA","NA","2890","NA","2905","60127","312169","315951","3063","57539","2891","mousetracking operator preview effect","0","0","0","no","false","no","1680"
"neutral","undefined","1","undefined","undefined","white","no","legacy","legacy","legacy","0","relative","undefined","undefined","67","NA","0","0","0","0","0","0","0","83","83","0","15","0","no","03/09/19 16:29:45","A simple template for the mouse-tracking paradigm","yes","Experiment-TF.osexp","C:\Users\Kristen\Documents\opPreviewExperiment-master\procedure","no","mono","no","24","no","black","no","yes","1050","legacy","67","15","C:/Users/Kristen/Documents/opPreviewExperiment-master/procedure/subject-6.csv","legacy","Kafkaesque Koffka","3.2.6","mult","0","l","NA","NA","b","a","10694","NA","NA","156","10694","2","1429","legacy","small","1024","2","48000","-16","experiment","5_3_mult_FNI.jpg","6","even","legacy","315987","NA","70821","NA","NA","2890","NA","2905","60127","315988","318410","3063","57539","2891","mousetracking operator preview effect","0","0","0","no","false","no","1680"
"neutral","undefined","1","undefined","undefined","white","no","legacy","legacy","legacy","0","relative","undefined","undefined","68","NA","0","0","0","0","0","0","0","84","84","0","15","0","no","03/09/19 16:29:45","A simple template for the mouse-tracking paradigm","yes","Experiment-TF.osexp","C:\Users\Kristen\Documents\opPreviewExperiment-master\procedure","no","mono","no","24","no","black","no","yes","1050","legacy","68","15","C:/Users/Kristen/Documents/opPreviewExperiment-master/procedure/subject-6.csv","legacy","Kafkaesque Koffka","3.2.6","mult","0","a","NA","NA","b","a","10694","NA","NA","156","10694","2","4042","legacy","large","1024","2","48000","-16","experiment","6_8_mult_true.jpg","6","even","legacy","318442","NA","70821","NA","NA","2890","NA","2905","60127","318442","323460","3063","57539","2891","mousetracking operator preview effect","0","0","0","no","true","no","1680"
"neutral","undefined","1","undefined","undefined","white","no","legacy","legacy","legacy","0","relative","undefined","undefined","69","NA","0","0","0","0","0","0","0","85","85","0","15","0","no","03/09/19 16:29:45","A simple template for the mouse-tracking paradigm","yes","Experiment-TF.osexp","C:\Users\Kristen\Documents\opPreviewExperiment-master\procedure","no","mono","no","24","no","black","no","yes","1050","legacy","69","15","C:/Users/Kristen/Documents/opPreviewExperiment-master/procedure/subject-6.csv","legacy","Kafkaesque Koffka","3.2.6","mult","0","a","NA","NA","b","a","10694","NA","NA","156","10694","2","1187","legacy","small","1024","2","48000","-16","experiment","5_3_mult_true.jpg","6","even","legacy","323478","NA","70821","NA","NA","2890","NA","2905","60127","323478","325606","3063","57539","2891","mousetracking operator preview effect","0","0","0","no","true","no","1680"
"neutral","undefined","1","undefined","undefined","white","no","legacy","legacy","legacy","0","relative","undefined","undefined","70","NA","0","0","0","0","0","0","0","86","86","0","15","0","no","03/09/19 16:29:45","A simple template for the mouse-tracking paradigm","yes","Experiment-TF.osexp","C:\Users\Kristen\Documents\opPreviewExperiment-master\procedure","no","mono","no","24","no","black","no","yes","1050","legacy","70","15","C:/Users/Kristen/Documents/opPreviewExperiment-master/procedure/subject-6.csv","legacy","Kafkaesque Koffka","3.2.6","add","0","l","NA","NA","b","a","10694","NA","NA","156","10694","2","3063","legacy","small","1024","2","48000","-16","experiment","3_6_add_FNI.jpg","6","even","legacy","325630","NA","70821","NA","NA","2890","NA","2905","60127","325630","329695","3063","57539","2891","mousetracking operator preview effect","0","0","0","no","false","no","1680"
"neutral","undefined","1","undefined","undefined","white","no","legacy","legacy","legacy","0","relative","undefined","undefined","71","NA","0","0","0","0","0","0","0","87","87","0","15","0","no","03/09/19 16:29:45","A simple template for the mouse-tracking paradigm","yes","Experiment-TF.osexp","C:\Users\Kristen\Documents\opPreviewExperiment-master\procedure","no","mono","no","24","no","black","no","yes","1050","legacy","71","15","C:/Users/Kristen/Documents/opPreviewExperiment-master/procedure/subject-6.csv","legacy","Kafkaesque Koffka","3.2.6","add","0","l","NA","NA","b","a","10694","NA","NA","156","10694","2","2427","legacy","small","1024","2","48000","-16","experiment","5_3_add_FI.jpg","6","even","legacy","329722","NA","70821","NA","NA","2890","NA","2905","60127","329722","333124","3063","57539","2891","mousetracking operator preview effect","0","0","0","no","false","no","1680"
"negative","undefined","1","undefined","undefined","white","no","legacy","legacy","legacy","0","relative","undefined","undefined","72","NA","0","0","0","0","0","0","0","88","88","0","15","0","no","03/09/19 16:29:45","A simple template for the mouse-tracking paradigm","yes","Experiment-TF.osexp","C:\Users\Kristen\Documents\opPreviewExperiment-master\procedure","no","mono","no","24","no","black","no","yes","1050","legacy","72","15","C:/Users/Kristen/Documents/opPreviewExperiment-master/procedure/subject-6.csv","legacy","Kafkaesque Koffka","3.2.6","add","0","a","NA","NA","b","a","10694","NA","NA","156","10694","2","1448","legacy","small","1024","2","48000","-16","experiment","5_3_add_true.jpg","6","even","legacy","333148","NA","70821","NA","NA","2890","NA","2905","60127","333148","335747","3063","57539","2891","mousetracking operator preview effect","0","0","0","no","true","no","1680"
"negative","undefined","1","undefined","undefined","white","no","legacy","legacy","legacy","0","relative","undefined","undefined","73","NA","0","0","0","0","0","0","0","89","89","0","15","0","no","03/09/19 16:29:45","A simple template for the mouse-tracking paradigm","yes","Experiment-TF.osexp","C:\Users\Kristen\Documents\opPreviewExperiment-master\procedure","no","mono","no","24","no","black","no","yes","1050","legacy","73","15","C:/Users/Kristen/Documents/opPreviewExperiment-master/procedure/subject-6.csv","legacy","Kafkaesque Koffka","3.2.6","add","0","a","NA","NA","b","a","10694","NA","NA","156","10694","2","796","legacy","small","1024","2","48000","-16","experiment","2_7_add_true.jpg","6","even","legacy","335776","NA","70821","NA","NA","2890","NA","2905","60127","335776","337718","3063","57539","2891","mousetracking operator preview effect","0","0","0","no","true","no","1680"
"neutral","undefined","1","undefined","undefined","white","no","legacy","legacy","legacy","0","relative","undefined","undefined","74","NA","0","0","0","0","0","0","0","90","90","0","15","0","no","03/09/19 16:29:45","A simple template for the mouse-tracking paradigm","yes","Experiment-TF.osexp","C:\Users\Kristen\Documents\opPreviewExperiment-master\procedure","no","mono","no","24","no","black","no","yes","1050","legacy","74","15","C:/Users/Kristen/Documents/opPreviewExperiment-master/procedure/subject-6.csv","legacy","Kafkaesque Koffka","3.2.6","add","0","a","NA","NA","b","a","10694","NA","NA","156","10694","2","801","legacy","small","1024","2","48000","-16","experiment","2_7_add_true.jpg","6","even","legacy","337742","NA","70821","NA","NA","2890","NA","2905","60127","337742","339527","3063","57539","2891","mousetracking operator preview effect","0","0","0","no","true","no","1680"
"negative","undefined","1","undefined","undefined","white","no","legacy","legacy","legacy","0","relative","undefined","undefined","75","NA","0","0","0","0","0","0","0","91","91","0","15","0","no","03/09/19 16:29:45","A simple template for the mouse-tracking paradigm","yes","Experiment-TF.osexp","C:\Users\Kristen\Documents\opPreviewExperiment-master\procedure","no","mono","no","24","no","black","no","yes","1050","legacy","75","15","C:/Users/Kristen/Documents/opPreviewExperiment-master/procedure/subject-6.csv","legacy","Kafkaesque Koffka","3.2.6","add","0","l","NA","NA","b","a","10694","NA","NA","156","10694","2","1472","legacy","small","1024","2","48000","-16","experiment","2_7_add_FI.jpg","6","even","legacy","339550","NA","70821","NA","NA","2890","NA","2905","60127","339550","342180","3063","57539","2891","mousetracking operator preview effect","0","0","0","no","false","no","1680"
"negative","undefined","1","undefined","undefined","white","no","legacy","legacy","legacy","0","relative","undefined","undefined","76","NA","0","0","0","0","0","0","0","92","92","0","15","0","no","03/09/19 16:29:45","A simple template for the mouse-tracking paradigm","yes","Experiment-TF.osexp","C:\Users\Kristen\Documents\opPreviewExperiment-master\procedure","no","mono","no","24","no","black","no","yes","1050","legacy","76","15","C:/Users/Kristen/Documents/opPreviewExperiment-master/procedure/subject-6.csv","legacy","Kafkaesque Koffka","3.2.6","mult","0","l","NA","NA","b","a","10694","NA","NA","156","10694","2","1106","legacy","small","1024","2","48000","-16","experiment","2_7_mult_FNI.jpg","6","even","legacy","342212","NA","70821","NA","NA","2890","NA","2905","60127","342212","344470","3063","57539","2891","mousetracking operator preview effect","0","0","0","no","false","no","1680"
"neutral","undefined","1","undefined","undefined","white","no","legacy","legacy","legacy","0","relative","undefined","undefined","77","NA","0","0","0","0","0","0","0","93","93","0","15","0","no","03/09/19 16:29:45","A simple template for the mouse-tracking paradigm","yes","Experiment-TF.osexp","C:\Users\Kristen\Documents\opPreviewExperiment-master\procedure","no","mono","no","24","no","black","no","yes","1050","legacy","77","15","C:/Users/Kristen/Documents/opPreviewExperiment-master/procedure/subject-6.csv","legacy","Kafkaesque Koffka","3.2.6","mult","0","a","NA","NA","b","a","10694","NA","NA","156","10694","2","3176","legacy","large","1024","2","48000","-16","experiment","4_9_mult_true.jpg","6","even","legacy","344491","NA","70821","NA","NA","2890","NA","2905","60127","344491","348631","3063","57539","2891","mousetracking operator preview effect","0","0","0","no","true","no","1680"
"negative","undefined","1","undefined","undefined","white","no","legacy","legacy","legacy","0","relative","undefined","undefined","78","NA","0","0","0","0","0","0","0","94","94","0","15","0","no","03/09/19 16:29:45","A simple template for the mouse-tracking paradigm","yes","Experiment-TF.osexp","C:\Users\Kristen\Documents\opPreviewExperiment-master\procedure","no","mono","no","24","no","black","no","yes","1050","legacy","78","15","C:/Users/Kristen/Documents/opPreviewExperiment-master/procedure/subject-6.csv","legacy","Kafkaesque Koffka","3.2.6","add","0","l","NA","NA","b","a","10694","NA","NA","156","10694","2","1714","legacy","small","1024","2","48000","-16","experiment","3_6_add_FNI.jpg","6","even","legacy","348653","NA","70821","NA","NA","2890","NA","2905","60127","348653","351511","3063","57539","2891","mousetracking operator preview effect","0","0","0","no","false","no","1680"
"negative","undefined","1","undefined","undefined","white","no","legacy","legacy","legacy","0","relative","undefined","undefined","79","NA","0","0","0","0","0","0","0","95","95","0","15","0","no","03/09/19 16:29:45","A simple template for the mouse-tracking paradigm","yes","Experiment-TF.osexp","C:\Users\Kristen\Documents\opPreviewExperiment-master\procedure","no","mono","no","24","no","black","no","yes","1050","legacy","79","15","C:/Users/Kristen/Documents/opPreviewExperiment-master/procedure/subject-6.csv","legacy","Kafkaesque Koffka","3.2.6","mult","0","l","NA","NA","b","a","10694","NA","NA","156","10694","2","2434","legacy","large","1024","2","48000","-16","experiment","8_4_mult_FNI.jpg","6","even","legacy","351542","NA","70821","NA","NA","2890","NA","2905","60127","351542","355115","3063","57539","2891","mousetracking operator preview effect","0","0","0","no","false","no","1680"
"negative","undefined","1","undefined","undefined","white","no","legacy","legacy","legacy","0","relative","undefined","undefined","80","NA","0","0","0","0","0","0","0","96","96","0","15","0","no","03/09/19 16:29:45","A simple template for the mouse-tracking paradigm","yes","Experiment-TF.osexp","C:\Users\Kristen\Documents\opPreviewExperiment-master\procedure","no","mono","no","24","no","black","no","yes","1050","legacy","80","15","C:/Users/Kristen/Documents/opPreviewExperiment-master/procedure/subject-6.csv","legacy","Kafkaesque Koffka","3.2.6","add","0","a","NA","NA","b","a","10694","NA","NA","156","10694","2","1616","legacy","large","1024","2","48000","-16","experiment","4_9_add_true.jpg","6","even","legacy","355137","NA","70821","NA","NA","2890","NA","2905","60127","355138","357893","3063","57539","2891","mousetracking operator preview effect","0","0","0","no","true","no","1680"
"negative","undefined","1","undefined","undefined","white","no","legacy","legacy","legacy","0","relative","undefined","undefined","81","NA","0","0","0","0","0","0","0","97","97","0","15","0","no","03/09/19 16:29:45","A simple template for the mouse-tracking paradigm","yes","Experiment-TF.osexp","C:\Users\Kristen\Documents\opPreviewExperiment-master\procedure","no","mono","no","24","no","black","no","yes","1050","legacy","81","15","C:/Users/Kristen/Documents/opPreviewExperiment-master/procedure/subject-6.csv","legacy","Kafkaesque Koffka","3.2.6","add","0","l","NA","NA","b","a","10694","NA","NA","156","10694","2","1726","legacy","large","1024","2","48000","-16","experiment","9_7_add_FNI.jpg","6","even","legacy","357915","NA","70821","NA","NA","2890","NA","2905","60127","357915","360793","3063","57539","2891","mousetracking operator preview effect","0","0","0","no","false","no","1680"
"negative","undefined","1","undefined","undefined","white","no","legacy","legacy","legacy","0","relative","undefined","undefined","82","NA","0","0","0","0","0","0","0","98","98","0","15","0","no","03/09/19 16:29:45","A simple template for the mouse-tracking paradigm","yes","Experiment-TF.osexp","C:\Users\Kristen\Documents\opPreviewExperiment-master\procedure","no","mono","no","24","no","black","no","yes","1050","legacy","82","15","C:/Users/Kristen/Documents/opPreviewExperiment-master/procedure/subject-6.csv","legacy","Kafkaesque Koffka","3.2.6","mult","0","l","NA","NA","b","a","10694","NA","NA","156","10694","2","1234","legacy","small","1024","2","48000","-16","experiment","5_3_mult_FNI.jpg","6","even","legacy","360813","NA","70821","NA","NA","2890","NA","2905","60127","360813","363171","3063","57539","2891","mousetracking operator preview effect","0","0","0","no","false","no","1680"
"neutral","undefined","1","undefined","undefined","white","no","legacy","legacy","legacy","0","relative","undefined","undefined","83","NA","0","0","0","0","0","0","0","99","99","0","15","0","no","03/09/19 16:29:45","A simple template for the mouse-tracking paradigm","yes","Experiment-TF.osexp","C:\Users\Kristen\Documents\opPreviewExperiment-master\procedure","no","mono","no","24","no","black","no","yes","1050","legacy","83","15","C:/Users/Kristen/Documents/opPreviewExperiment-master/procedure/subject-6.csv","legacy","Kafkaesque Koffka","3.2.6","mult","0","a","NA","NA","b","a","10694","NA","NA","156","10694","2","1141","legacy","small","1024","2","48000","-16","experiment","8_2_mult_true.jpg","6","even","legacy","363202","NA","70821","NA","NA","2890","NA","2905","60127","363202","365318","3063","57539","2891","mousetracking operator preview effect","0","0","0","no","true","no","1680"
"negative","undefined","1","undefined","undefined","white","no","legacy","legacy","legacy","0","relative","undefined","undefined","84","NA","0","0","0","0","0","0","0","100","100","0","15","0","no","03/09/19 16:29:45","A simple template for the mouse-tracking paradigm","yes","Experiment-TF.osexp","C:\Users\Kristen\Documents\opPreviewExperiment-master\procedure","no","mono","no","24","no","black","no","yes","1050","legacy","84","15","C:/Users/Kristen/Documents/opPreviewExperiment-master/procedure/subject-6.csv","legacy","Kafkaesque Koffka","3.2.6","add","0","a","NA","NA","b","a","10694","NA","NA","156","10694","2","2067","legacy","large","1024","2","48000","-16","experiment","6_8_add_true.jpg","6","even","legacy","365335","NA","70821","NA","NA","2890","NA","2905","60127","365335","368547","3063","57539","2891","mousetracking operator preview effect","0","0","0","no","true","no","1680"
"negative","undefined","1","undefined","undefined","white","no","legacy","legacy","legacy","0","relative","undefined","undefined","85","NA","0","0","0","0","0","0","0","101","101","0","15","0","no","03/09/19 16:29:45","A simple template for the mouse-tracking paradigm","yes","Experiment-TF.osexp","C:\Users\Kristen\Documents\opPreviewExperiment-master\procedure","no","mono","no","24","no","black","no","yes","1050","legacy","85","15","C:/Users/Kristen/Documents/opPreviewExperiment-master/procedure/subject-6.csv","legacy","Kafkaesque Koffka","3.2.6","mult","0","l","NA","NA","b","a","10694","NA","NA","156","10694","2","1726","legacy","large","1024","2","48000","-16","experiment","6_8_mult_FNI.jpg","6","even","legacy","368563","NA","70821","NA","NA","2890","NA","2905","60127","368563","371420","3063","57539","2891","mousetracking operator preview effect","0","0","0","no","false","no","1680"
"negative","undefined","1","undefined","undefined","white","no","legacy","legacy","legacy","0","relative","undefined","undefined","86","NA","0","0","0","0","0","0","0","102","102","0","15","0","no","03/09/19 16:29:45","A simple template for the mouse-tracking paradigm","yes","Experiment-TF.osexp","C:\Users\Kristen\Documents\opPreviewExperiment-master\procedure","no","mono","no","24","no","black","no","yes","1050","legacy","86","15","C:/Users/Kristen/Documents/opPreviewExperiment-master/procedure/subject-6.csv","legacy","Kafkaesque Koffka","3.2.6","mult","0","a","NA","NA","b","a","10694","NA","NA","156","10694","2","839","legacy","large","1024","2","48000","-16","experiment","6_8_mult_true.jpg","6","even","legacy","371442","NA","70821","NA","NA","2890","NA","2905","60127","371442","373426","3063","57539","2891","mousetracking operator preview effect","0","0","0","no","true","no","1680"
"negative","undefined","1","undefined","undefined","white","no","legacy","legacy","legacy","0","relative","undefined","undefined","87","NA","0","0","0","0","0","0","0","103","103","0","15","0","no","03/09/19 16:29:45","A simple template for the mouse-tracking paradigm","yes","Experiment-TF.osexp","C:\Users\Kristen\Documents\opPreviewExperiment-master\procedure","no","mono","no","24","no","black","no","yes","1050","legacy","87","15","C:/Users/Kristen/Documents/opPreviewExperiment-master/procedure/subject-6.csv","legacy","Kafkaesque Koffka","3.2.6","mult","0","l","NA","NA","b","a","10694","NA","NA","156","10694","2","1485","legacy","small","1024","2","48000","-16","experiment","3_6_mult_FI.jpg","6","even","legacy","373447","NA","70821","NA","NA","2890","NA","2905","60127","373447","376108","3063","57539","2891","mousetracking operator preview effect","0","0","0","no","false","no","1680"
"negative","undefined","1","undefined","undefined","white","no","legacy","legacy","legacy","0","relative","undefined","undefined","88","NA","0","0","0","0","0","0","0","104","104","0","15","0","no","03/09/19 16:29:45","A simple template for the mouse-tracking paradigm","yes","Experiment-TF.osexp","C:\Users\Kristen\Documents\opPreviewExperiment-master\procedure","no","mono","no","24","no","black","no","yes","1050","legacy","88","15","C:/Users/Kristen/Documents/opPreviewExperiment-master/procedure/subject-6.csv","legacy","Kafkaesque Koffka","3.2.6","mult","0","a","NA","NA","b","a","10694","NA","NA","156","10694","2","2290","legacy","large","1024","2","48000","-16","experiment","9_7_mult_true.jpg","6","even","legacy","376131","NA","70821","NA","NA","2890","NA","2905","60127","376131","379559","3063","57539","2891","mousetracking operator preview effect","0","0","0","no","true","no","1680"
"neutral","undefined","1","undefined","undefined","white","no","legacy","legacy","legacy","0","relative","undefined","undefined","89","NA","0","0","0","0","0","0","0","105","105","0","15","0","no","03/09/19 16:29:45","A simple template for the mouse-tracking paradigm","yes","Experiment-TF.osexp","C:\Users\Kristen\Documents\opPreviewExperiment-master\procedure","no","mono","no","24","no","black","no","yes","1050","legacy","89","15","C:/Users/Kristen/Documents/opPreviewExperiment-master/procedure/subject-6.csv","legacy","Kafkaesque Koffka","3.2.6","mult","0","a","NA","NA","b","a","10694","NA","NA","156","10694","2","1501","legacy","small","1024","2","48000","-16","experiment","3_6_mult_true.jpg","6","even","legacy","379587","NA","70821","NA","NA","2890","NA","2905","60127","379587","382068","3063","57539","2891","mousetracking operator preview effect","0","0","0","no","true","no","1680"
"negative","undefined","1","undefined","undefined","white","no","legacy","legacy","legacy","0","relative","undefined","undefined","90","NA","0","0","0","0","0","0","0","106","106","0","15","0","no","03/09/19 16:29:45","A simple template for the mouse-tracking paradigm","yes","Experiment-TF.osexp","C:\Users\Kristen\Documents\opPreviewExperiment-master\procedure","no","mono","no","24","no","black","no","yes","1050","legacy","90","15","C:/Users/Kristen/Documents/opPreviewExperiment-master/procedure/subject-6.csv","legacy","Kafkaesque Koffka","3.2.6","mult","0","a","NA","NA","b","a","10694","NA","NA","156","10694","2","2001","legacy","large","1024","2","48000","-16","experiment","4_9_mult_true.jpg","6","even","legacy","382097","NA","70821","NA","NA","2890","NA","2905","60127","382097","385248","3063","57539","2891","mousetracking operator preview effect","0","0","0","no","true","no","1680"
"neutral","undefined","0","undefined","undefined","white","no","legacy","legacy","legacy","0","relative","undefined","undefined","91","NA","0","0","0","0","0","0","0","107","107","0","15","0","no","03/09/19 16:29:45","A simple template for the mouse-tracking paradigm","yes","Experiment-TF.osexp","C:\Users\Kristen\Documents\opPreviewExperiment-master\procedure","no","mono","no","24","no","black","no","yes","1050","legacy","91","15","C:/Users/Kristen/Documents/opPreviewExperiment-master/procedure/subject-6.csv","legacy","Kafkaesque Koffka","3.2.6","add","0","l","NA","NA","b","a","10694","NA","NA","156","10694","2","1946","legacy","small","1024","2","48000","-16","experiment","3_6_add_true.jpg","6","even","legacy","385268","NA","70821","NA","NA","2890","NA","2905","60127","385268","389226","3063","57539","2891","mousetracking operator preview effect","0","0","0","no","true","no","1680"
"neutral","undefined","1","undefined","undefined","white","no","legacy","legacy","legacy","0","relative","undefined","undefined","92","NA","0","0","0","0","0","0","0","108","108","0","15","0","no","03/09/19 16:29:45","A simple template for the mouse-tracking paradigm","yes","Experiment-TF.osexp","C:\Users\Kristen\Documents\opPreviewExperiment-master\procedure","no","mono","no","24","no","black","no","yes","1050","legacy","92","15","C:/Users/Kristen/Documents/opPreviewExperiment-master/procedure/subject-6.csv","legacy","Kafkaesque Koffka","3.2.6","add","0","a","NA","NA","b","a","10694","NA","NA","156","10694","2","1217","legacy","small","1024","2","48000","-16","experiment","5_3_add_true.jpg","6","even","legacy","389258","NA","70821","NA","NA","2890","NA","2905","60127","389259","391453","3063","57539","2891","mousetracking operator preview effect","0","0","0","no","true","no","1680"
"negative","undefined","1","undefined","undefined","white","no","legacy","legacy","legacy","0","relative","undefined","undefined","93","NA","0","0","0","0","0","0","0","109","109","0","15","0","no","03/09/19 16:29:45","A simple template for the mouse-tracking paradigm","yes","Experiment-TF.osexp","C:\Users\Kristen\Documents\opPreviewExperiment-master\procedure","no","mono","no","24","no","black","no","yes","1050","legacy","93","15","C:/Users/Kristen/Documents/opPreviewExperiment-master/procedure/subject-6.csv","legacy","Kafkaesque Koffka","3.2.6","mult","0","l","NA","NA","b","a","10694","NA","NA","156","10694","2","1775","legacy","large","1024","2","48000","-16","experiment","6_8_mult_FI.jpg","6","even","legacy","391474","NA","70821","NA","NA","2890","NA","2905","60127","391474","394383","3063","57539","2891","mousetracking operator preview effect","0","0","0","no","false","no","1680"
