"SOAcondition","acc","accuracy","average_response_time","avg_rt","background","bidi","canvas_backend","clock_backend","color_backend","compensation","coordinates","correct","correct_instruction1","count_block1_sequence","count_block2_sequence","count_block_1","count_block_2","count_breakScreen","count_experiment","count_finish","count_instruction1","count_instruction2","count_keyboard_script","count_logger","count_practiceBlock","count_practice_sequence","count_setup_script","custom_cursor","datetime","description","disable_garbage_collection","experiment_file","experiment_path","font_bold","font_family","font_italic","font_size","font_underline","foreground","form_clicks","fullscreen","height","keyboard_backend","live_row","live_row_practiceBlock","logfile","mouse_backend","opensesame_codename","opensesame_version","operation","repeat_cycle","response","response_breakScreen","response_finish","response_instruction1","response_instruction2","response_time","response_time_breakScreen","response_time_finish","response_time_instruction1","response_time_instruction2","round_decimals","rt","sampler_backend","size","sound_buf_size","sound_channels","sound_freq","sound_sample_size","start","stimulus","subject_nr","subject_parity","synth_backend","time_block1_sequence","time_block2_sequence","time_block_1","time_block_2","time_breakScreen","time_experiment","time_finish","time_instruction1","time_instruction2","time_keyboard_script","time_logger","time_practiceBlock","time_practice_sequence","time_setup_script","title","total_correct","total_response_time","total_responses","transparent_variables","truth","uniform_coordinates","width"
"neutral","undefined","1","undefined","undefined","white","no","legacy","legacy","legacy","0","relative","undefined","undefined","NA","NA","0","0","0","0","0","0","0","0","0","0","0","0","no","03/05/19 12:01:55","A simple template for the mouse-tracking paradigm","yes","Experiment-FT.osexp","C:\Users\Kristen\Documents\opPreviewExperiment-master\procedure","no","mono","no","24","no","black","no","yes","1050","legacy","0","0","C:/Users/Kristen/Documents/opPreviewExperiment-master/procedure/subject-1.csv","legacy","Kafkaesque Koffka","3.2.6","mult","0","l","NA","NA","","NA","39403","NA","NA","39403","NA","2","2306","legacy","NA","1024","2","48000","-16","experiment","1_4_mult_T.jpg","1","odd","legacy","NA","NA","NA","NA","NA","3170","NA","3183","NA","45007","48385","45006","45007","3172","mousetracking operator preview effect","0","0","0","no","true","no","1680"
"neutral","undefined","1","undefined","undefined","white","no","legacy","legacy","legacy","0","relative","undefined","undefined","NA","NA","0","0","0","0","0","0","0","1","1","0","1","0","no","03/05/19 12:01:55","A simple template for the mouse-tracking paradigm","yes","Experiment-FT.osexp","C:\Users\Kristen\Documents\opPreviewExperiment-master\procedure","no","mono","no","24","no","black","no","yes","1050","legacy","1","1","C:/Users/Kristen/Documents/opPreviewExperiment-master/procedure/subject-1.csv","legacy","Kafkaesque Koffka","3.2.6","add","0","a","NA","NA","","NA","39403","NA","NA","39403","NA","2","1427","legacy","NA","1024","2","48000","-16","experiment","1_4_add_F.jpg","1","odd","legacy","NA","NA","NA","NA","NA","3170","NA","3183","NA","48411","50830","45006","48411","3172","mousetracking operator preview effect","0","0","0","no","false","no","1680"
"negative","undefined","1","undefined","undefined","white","no","legacy","legacy","legacy","0","relative","undefined","undefined","NA","NA","0","0","0","0","0","0","0","2","2","0","2","0","no","03/05/19 12:01:55","A simple template for the mouse-tracking paradigm","yes","Experiment-FT.osexp","C:\Users\Kristen\Documents\opPreviewExperiment-master\procedure","no","mono","no","24","no","black","no","yes","1050","legacy","2","2","C:/Users/Kristen/Documents/opPreviewExperiment-master/procedure/subject-1.csv","legacy","Kafkaesque Koffka","3.2.6","mult","0","l","NA","NA","","NA","39403","NA","NA","39403","NA","2","1760","legacy","NA","1024","2","48000","-16","experiment","1_4_mult_T.jpg","1","odd","legacy","NA","NA","NA","NA","NA","3170","NA","3183","NA","50852","53789","45006","50852","3172","mousetracking operator preview effect","0","0","0","no","true","no","1680"
"neutral","undefined","1","undefined","undefined","white","no","legacy","legacy","legacy","0","relative","undefined","undefined","NA","NA","0","0","0","0","0","0","0","3","3","0","3","0","no","03/05/19 12:01:55","A simple template for the mouse-tracking paradigm","yes","Experiment-FT.osexp","C:\Users\Kristen\Documents\opPreviewExperiment-master\procedure","no","mono","no","24","no","black","no","yes","1050","legacy","3","3","C:/Users/Kristen/Documents/opPreviewExperiment-master/procedure/subject-1.csv","legacy","Kafkaesque Koffka","3.2.6","mult","0","l","NA","NA","","NA","39403","NA","NA","39403","NA","2","1849","legacy","NA","1024","2","48000","-16","experiment","0_3_mult_T.jpg","1","odd","legacy","NA","NA","NA","NA","NA","3170","NA","3183","NA","53819","56670","45006","53819","3172","mousetracking operator preview effect","0","0","0","no","true","no","1680"
"neutral","undefined","1","undefined","undefined","white","no","legacy","legacy","legacy","0","relative","undefined","undefined","NA","NA","0","0","0","0","0","0","0","4","4","0","4","0","no","03/05/19 12:01:55","A simple template for the mouse-tracking paradigm","yes","Experiment-FT.osexp","C:\Users\Kristen\Documents\opPreviewExperiment-master\procedure","no","mono","no","24","no","black","no","yes","1050","legacy","4","4","C:/Users/Kristen/Documents/opPreviewExperiment-master/procedure/subject-1.csv","legacy","Kafkaesque Koffka","3.2.6","mult","0","a","NA","NA","","NA","39403","NA","NA","39403","NA","2","1589","legacy","NA","1024","2","48000","-16","experiment","0_3_mult_F.jpg","1","odd","legacy","NA","NA","NA","NA","NA","3170","NA","3183","NA","56696","59286","45006","56696","3172","mousetracking operator preview effect","0","0","0","no","false","no","1680"
"negative","undefined","1","undefined","undefined","white","no","legacy","legacy","legacy","0","relative","undefined","undefined","NA","NA","0","0","0","0","0","0","0","5","5","0","5","0","no","03/05/19 12:01:55","A simple template for the mouse-tracking paradigm","yes","Experiment-FT.osexp","C:\Users\Kristen\Documents\opPreviewExperiment-master\procedure","no","mono","no","24","no","black","no","yes","1050","legacy","5","5","C:/Users/Kristen/Documents/opPreviewExperiment-master/procedure/subject-1.csv","legacy","Kafkaesque Koffka","3.2.6","add","0","l","NA","NA","","NA","39403","NA","NA","39403","NA","2","2433","legacy","NA","1024","2","48000","-16","experiment","0_3_add_T.jpg","1","odd","legacy","NA","NA","NA","NA","NA","3170","NA","3183","NA","59306","62926","45006","59306","3172","mousetracking operator preview effect","0","0","0","no","true","no","1680"
"negative","undefined","1","undefined","undefined","white","no","legacy","legacy","legacy","0","relative","undefined","undefined","NA","NA","0","0","0","0","0","0","0","6","6","0","6","0","no","03/05/19 12:01:55","A simple template for the mouse-tracking paradigm","yes","Experiment-FT.osexp","C:\Users\Kristen\Documents\opPreviewExperiment-master\procedure","no","mono","no","24","no","black","no","yes","1050","legacy","6","6","C:/Users/Kristen/Documents/opPreviewExperiment-master/procedure/subject-1.csv","legacy","Kafkaesque Koffka","3.2.6","add","0","l","NA","NA","","NA","39403","NA","NA","39403","NA","2","3803","legacy","NA","1024","2","48000","-16","experiment","1_4_add_T.jpg","1","odd","legacy","NA","NA","NA","NA","NA","3170","NA","3183","NA","62940","67903","45006","62940","3172","mousetracking operator preview effect","0","0","0","no","true","no","1680"
"neutral","undefined","0","undefined","undefined","white","no","legacy","legacy","legacy","0","relative","undefined","undefined","NA","NA","0","0","0","0","0","0","0","7","7","0","7","0","no","03/05/19 12:01:55","A simple template for the mouse-tracking paradigm","yes","Experiment-FT.osexp","C:\Users\Kristen\Documents\opPreviewExperiment-master\procedure","no","mono","no","24","no","black","no","yes","1050","legacy","7","7","C:/Users/Kristen/Documents/opPreviewExperiment-master/procedure/subject-1.csv","legacy","Kafkaesque Koffka","3.2.6","mult","0","l","NA","NA","","NA","39403","NA","NA","39403","NA","2","1357","legacy","NA","1024","2","48000","-16","experiment","1_4_mult_F.jpg","1","odd","legacy","NA","NA","NA","NA","NA","3170","NA","3183","NA","67917","71285","45006","67917","3172","mousetracking operator preview effect","0","0","0","no","false","no","1680"
"neutral","undefined","1","undefined","undefined","white","no","legacy","legacy","legacy","0","relative","undefined","undefined","NA","NA","0","0","0","0","0","0","0","8","8","0","8","0","no","03/05/19 12:01:55","A simple template for the mouse-tracking paradigm","yes","Experiment-FT.osexp","C:\Users\Kristen\Documents\opPreviewExperiment-master\procedure","no","mono","no","24","no","black","no","yes","1050","legacy","8","8","C:/Users/Kristen/Documents/opPreviewExperiment-master/procedure/subject-1.csv","legacy","Kafkaesque Koffka","3.2.6","add","0","l","NA","NA","","NA","39403","NA","NA","39403","NA","2","1206","legacy","NA","1024","2","48000","-16","experiment","0_3_add_T.jpg","1","odd","legacy","NA","NA","NA","NA","NA","3170","NA","3183","NA","71321","73505","45006","71319","3172","mousetracking operator preview effect","0","0","0","no","true","no","1680"
"negative","undefined","1","undefined","undefined","white","no","legacy","legacy","legacy","0","relative","undefined","undefined","NA","NA","0","0","0","0","0","0","0","9","9","0","9","0","no","03/05/19 12:01:55","A simple template for the mouse-tracking paradigm","yes","Experiment-FT.osexp","C:\Users\Kristen\Documents\opPreviewExperiment-master\procedure","no","mono","no","24","no","black","no","yes","1050","legacy","9","9","C:/Users/Kristen/Documents/opPreviewExperiment-master/procedure/subject-1.csv","legacy","Kafkaesque Koffka","3.2.6","add","0","a","NA","NA","","NA","39403","NA","NA","39403","NA","2","968","legacy","NA","1024","2","48000","-16","experiment","1_4_add_F.jpg","1","odd","legacy","NA","NA","NA","NA","NA","3170","NA","3183","NA","73526","75645","45006","73526","3172","mousetracking operator preview effect","0","0","0","no","false","no","1680"
"neutral","undefined","1","undefined","undefined","white","no","legacy","legacy","legacy","0","relative","undefined","undefined","NA","NA","0","0","0","0","0","0","0","10","10","0","10","0","no","03/05/19 12:01:55","A simple template for the mouse-tracking paradigm","yes","Experiment-FT.osexp","C:\Users\Kristen\Documents\opPreviewExperiment-master\procedure","no","mono","no","24","no","black","no","yes","1050","legacy","10","10","C:/Users/Kristen/Documents/opPreviewExperiment-master/procedure/subject-1.csv","legacy","Kafkaesque Koffka","3.2.6","add","0","l","NA","NA","","NA","39403","NA","NA","39403","NA","2","871","legacy","NA","1024","2","48000","-16","experiment","1_4_add_T.jpg","1","odd","legacy","NA","NA","NA","NA","NA","3170","NA","3183","NA","75669","77520","45006","75669","3172","mousetracking operator preview effect","0","0","0","no","true","no","1680"
"negative","undefined","1","undefined","undefined","white","no","legacy","legacy","legacy","0","relative","undefined","undefined","NA","NA","0","0","0","0","0","0","0","11","11","0","11","0","no","03/05/19 12:01:55","A simple template for the mouse-tracking paradigm","yes","Experiment-FT.osexp","C:\Users\Kristen\Documents\opPreviewExperiment-master\procedure","no","mono","no","24","no","black","no","yes","1050","legacy","11","11","C:/Users/Kristen/Documents/opPreviewExperiment-master/procedure/subject-1.csv","legacy","Kafkaesque Koffka","3.2.6","add","0","a","NA","NA","","NA","39403","NA","NA","39403","NA","2","1361","legacy","NA","1024","2","48000","-16","experiment","0_3_add_F.jpg","1","odd","legacy","NA","NA","NA","NA","NA","3170","NA","3183","NA","77542","80072","45006","77542","3172","mousetracking operator preview effect","0","0","0","no","false","no","1680"
"neutral","undefined","1","undefined","undefined","white","no","legacy","legacy","legacy","0","relative","undefined","undefined","NA","NA","0","0","0","0","0","0","0","12","12","0","12","0","no","03/05/19 12:01:55","A simple template for the mouse-tracking paradigm","yes","Experiment-FT.osexp","C:\Users\Kristen\Documents\opPreviewExperiment-master\procedure","no","mono","no","24","no","black","no","yes","1050","legacy","12","12","C:/Users/Kristen/Documents/opPreviewExperiment-master/procedure/subject-1.csv","legacy","Kafkaesque Koffka","3.2.6","add","0","a","NA","NA","","NA","39403","NA","NA","39403","NA","2","624","legacy","NA","1024","2","48000","-16","experiment","0_3_add_F.jpg","1","odd","legacy","NA","NA","NA","NA","NA","3170","NA","3183","NA","80095","81690","45006","80095","3172","mousetracking operator preview effect","0","0","0","no","false","no","1680"
"negative","undefined","1","undefined","undefined","white","no","legacy","legacy","legacy","0","relative","undefined","undefined","NA","NA","0","0","0","0","0","0","0","13","13","0","13","0","no","03/05/19 12:01:55","A simple template for the mouse-tracking paradigm","yes","Experiment-FT.osexp","C:\Users\Kristen\Documents\opPreviewExperiment-master\procedure","no","mono","no","24","no","black","no","yes","1050","legacy","13","13","C:/Users/Kristen/Documents/opPreviewExperiment-master/procedure/subject-1.csv","legacy","Kafkaesque Koffka","3.2.6","mult","0","a","NA","NA","","NA","39403","NA","NA","39403","NA","2","1037","legacy","NA","1024","2","48000","-16","experiment","0_3_mult_F.jpg","1","odd","legacy","NA","NA","NA","NA","NA","3170","NA","3183","NA","81718","83909","45006","81718","3172","mousetracking operator preview effect","0","0","0","no","false","no","1680"
"negative","undefined","1","undefined","undefined","white","no","legacy","legacy","legacy","0","relative","undefined","undefined","NA","NA","0","0","0","0","0","0","0","14","14","0","14","0","no","03/05/19 12:01:55","A simple template for the mouse-tracking paradigm","yes","Experiment-FT.osexp","C:\Users\Kristen\Documents\opPreviewExperiment-master\procedure","no","mono","no","24","no","black","no","yes","1050","legacy","14","14","C:/Users/Kristen/Documents/opPreviewExperiment-master/procedure/subject-1.csv","legacy","Kafkaesque Koffka","3.2.6","mult","0","a","NA","NA","","NA","39403","NA","NA","39403","NA","2","1130","legacy","NA","1024","2","48000","-16","experiment","1_4_mult_F.jpg","1","odd","legacy","NA","NA","NA","NA","NA","3170","NA","3183","NA","83930","86198","45006","83930","3172","mousetracking operator preview effect","0","0","0","no","false","no","1680"
"negative","undefined","1","undefined","undefined","white","no","legacy","legacy","legacy","0","relative","undefined","undefined","NA","NA","0","0","0","0","0","0","0","15","15","0","15","0","no","03/05/19 12:01:55","A simple template for the mouse-tracking paradigm","yes","Experiment-FT.osexp","C:\Users\Kristen\Documents\opPreviewExperiment-master\procedure","no","mono","no","24","no","black","no","yes","1050","legacy","15","15","C:/Users/Kristen/Documents/opPreviewExperiment-master/procedure/subject-1.csv","legacy","Kafkaesque Koffka","3.2.6","mult","0","l","NA","NA","","NA","39403","NA","NA","39403","NA","2","877","legacy","NA","1024","2","48000","-16","experiment","0_3_mult_T.jpg","1","odd","legacy","NA","NA","NA","NA","NA","3170","NA","3183","NA","86219","88231","45006","86219","3172","mousetracking operator preview effect","0","0","0","no","true","no","1680"
"negative","undefined","1","undefined","undefined","white","no","legacy","legacy","legacy","0","relative","undefined","undefined","0","NA","0","0","0","0","0","0","0","16","16","0","15","0","no","03/05/19 12:01:55","A simple template for the mouse-tracking paradigm","yes","Experiment-FT.osexp","C:\Users\Kristen\Documents\opPreviewExperiment-master\procedure","no","mono","no","24","no","black","no","yes","1050","legacy","0","15","C:/Users/Kristen/Documents/opPreviewExperiment-master/procedure/subject-1.csv","legacy","Kafkaesque Koffka","3.2.6","add","0","l","NA","NA","","l","16661","NA","NA","39403","16661","2","1794","legacy","small","1024","2","48000","-16","experiment","3_6_add_true.jpg","1","odd","legacy","104920","NA","104917","NA","NA","3170","NA","3183","88255","104920","107883","45006","86219","3172","mousetracking operator preview effect","0","0","0","no","true","no","1680"
"neutral","undefined","1","undefined","undefined","white","no","legacy","legacy","legacy","0","relative","undefined","undefined","1","NA","0","0","0","0","0","0","0","17","17","0","15","0","no","03/05/19 12:01:55","A simple template for the mouse-tracking paradigm","yes","Experiment-FT.osexp","C:\Users\Kristen\Documents\opPreviewExperiment-master\procedure","no","mono","no","24","no","black","no","yes","1050","legacy","1","15","C:/Users/Kristen/Documents/opPreviewExperiment-master/procedure/subject-1.csv","legacy","Kafkaesque Koffka","3.2.6","add","0","l","NA","NA","","l","16661","NA","NA","39403","16661","2","1533","legacy","small","1024","2","48000","-16","experiment","5_3_add_true.jpg","1","odd","legacy","107905","NA","104917","NA","NA","3170","NA","3183","88255","107905","110439","45006","86219","3172","mousetracking operator preview effect","0","0","0","no","true","no","1680"
"neutral","undefined","1","undefined","undefined","white","no","legacy","legacy","legacy","0","relative","undefined","undefined","2","NA","0","0","0","0","0","0","0","18","18","0","15","0","no","03/05/19 12:01:55","A simple template for the mouse-tracking paradigm","yes","Experiment-FT.osexp","C:\Users\Kristen\Documents\opPreviewExperiment-master\procedure","no","mono","no","24","no","black","no","yes","1050","legacy","2","15","C:/Users/Kristen/Documents/opPreviewExperiment-master/procedure/subject-1.csv","legacy","Kafkaesque Koffka","3.2.6","add","0","l","NA","NA","","l","16661","NA","NA","39403","16661","2","685","legacy","small","1024","2","48000","-16","experiment","8_2_add_true.jpg","1","odd","legacy","110462","NA","104917","NA","NA","3170","NA","3183","88255","110462","112141","45006","86219","3172","mousetracking operator preview effect","0","0","0","no","true","no","1680"
"neutral","undefined","0","undefined","undefined","white","no","legacy","legacy","legacy","0","relative","undefined","undefined","3","NA","0","0","0","0","0","0","0","19","19","0","15","0","no","03/05/19 12:01:55","A simple template for the mouse-tracking paradigm","yes","Experiment-FT.osexp","C:\Users\Kristen\Documents\opPreviewExperiment-master\procedure","no","mono","no","24","no","black","no","yes","1050","legacy","3","15","C:/Users/Kristen/Documents/opPreviewExperiment-master/procedure/subject-1.csv","legacy","Kafkaesque Koffka","3.2.6","mult","0","a","NA","NA","","l","16661","NA","NA","39403","16661","2","1373","legacy","large","1024","2","48000","-16","experiment","4_9_mult_true.jpg","1","odd","legacy","112170","NA","104917","NA","NA","3170","NA","3183","88255","112170","115558","45006","86219","3172","mousetracking operator preview effect","0","0","0","no","true","no","1680"
"neutral","undefined","1","undefined","undefined","white","no","legacy","legacy","legacy","0","relative","undefined","undefined","4","NA","0","0","0","0","0","0","0","20","20","0","15","0","no","03/05/19 12:01:55","A simple template for the mouse-tracking paradigm","yes","Experiment-FT.osexp","C:\Users\Kristen\Documents\opPreviewExperiment-master\procedure","no","mono","no","24","no","black","no","yes","1050","legacy","4","15","C:/Users/Kristen/Documents/opPreviewExperiment-master/procedure/subject-1.csv","legacy","Kafkaesque Koffka","3.2.6","add","0","l","NA","NA","","l","16661","NA","NA","39403","16661","2","1513","legacy","large","1024","2","48000","-16","experiment","9_7_add_true.jpg","1","odd","legacy","115597","NA","104917","NA","NA","3170","NA","3183","88255","115598","118113","45006","86219","3172","mousetracking operator preview effect","0","0","0","no","true","no","1680"
"negative","undefined","1","undefined","undefined","white","no","legacy","legacy","legacy","0","relative","undefined","undefined","5","NA","0","0","0","0","0","0","0","21","21","0","15","0","no","03/05/19 12:01:55","A simple template for the mouse-tracking paradigm","yes","Experiment-FT.osexp","C:\Users\Kristen\Documents\opPreviewExperiment-master\procedure","no","mono","no","24","no","black","no","yes","1050","legacy","5","15","C:/Users/Kristen/Documents/opPreviewExperiment-master/procedure/subject-1.csv","legacy","Kafkaesque Koffka","3.2.6","mult","0","a","NA","NA","","l","16661","NA","NA","39403","16661","2","1036","legacy","large","1024","2","48000","-16","experiment","9_7_mult_FI.jpg","1","odd","legacy","118238","NA","104917","NA","NA","3170","NA","3183","88255","118238","120445","45006","86219","3172","mousetracking operator preview effect","0","0","0","no","false","no","1680"
"negative","undefined","1","undefined","undefined","white","no","legacy","legacy","legacy","0","relative","undefined","undefined","6","NA","0","0","0","0","0","0","0","22","22","0","15","0","no","03/05/19 12:01:55","A simple template for the mouse-tracking paradigm","yes","Experiment-FT.osexp","C:\Users\Kristen\Documents\opPreviewExperiment-master\procedure","no","mono","no","24","no","black","no","yes","1050","legacy","6","15","C:/Users/Kristen/Documents/opPreviewExperiment-master/procedure/subject-1.csv","legacy","Kafkaesque Koffka","3.2.6","add","0","a","NA","NA","","l","16661","NA","NA","39403","16661","2","1193","legacy","small","1024","2","48000","-16","experiment","5_3_add_FI.jpg","1","odd","legacy","120575","NA","104917","NA","NA","3170","NA","3183","88255","120575","122924","45006","86219","3172","mousetracking operator preview effect","0","0","0","no","false","no","1680"
"negative","undefined","1","undefined","undefined","white","no","legacy","legacy","legacy","0","relative","undefined","undefined","7","NA","0","0","0","0","0","0","0","23","23","0","15","0","no","03/05/19 12:01:55","A simple template for the mouse-tracking paradigm","yes","Experiment-FT.osexp","C:\Users\Kristen\Documents\opPreviewExperiment-master\procedure","no","mono","no","24","no","black","no","yes","1050","legacy","7","15","C:/Users/Kristen/Documents/opPreviewExperiment-master/procedure/subject-1.csv","legacy","Kafkaesque Koffka","3.2.6","add","0","a","NA","NA","","l","16661","NA","NA","39403","16661","2","1668","legacy","small","1024","2","48000","-16","experiment","2_7_add_FI.jpg","1","odd","legacy","122944","NA","104917","NA","NA","3170","NA","3183","88255","122944","125774","45006","86219","3172","mousetracking operator preview effect","0","0","0","no","false","no","1680"
"negative","undefined","1","undefined","undefined","white","no","legacy","legacy","legacy","0","relative","undefined","undefined","8","NA","0","0","0","0","0","0","0","24","24","0","15","0","no","03/05/19 12:01:55","A simple template for the mouse-tracking paradigm","yes","Experiment-FT.osexp","C:\Users\Kristen\Documents\opPreviewExperiment-master\procedure","no","mono","no","24","no","black","no","yes","1050","legacy","8","15","C:/Users/Kristen/Documents/opPreviewExperiment-master/procedure/subject-1.csv","legacy","Kafkaesque Koffka","3.2.6","add","0","a","NA","NA","","l","16661","NA","NA","39403","16661","2","1032","legacy","small","1024","2","48000","-16","experiment","8_2_add_FNI.jpg","1","odd","legacy","125795","NA","104917","NA","NA","3170","NA","3183","88255","125795","127999","45006","86219","3172","mousetracking operator preview effect","0","0","0","no","false","no","1680"
"neutral","undefined","1","undefined","undefined","white","no","legacy","legacy","legacy","0","relative","undefined","undefined","9","NA","0","0","0","0","0","0","0","25","25","0","15","0","no","03/05/19 12:01:55","A simple template for the mouse-tracking paradigm","yes","Experiment-FT.osexp","C:\Users\Kristen\Documents\opPreviewExperiment-master\procedure","no","mono","no","24","no","black","no","yes","1050","legacy","9","15","C:/Users/Kristen/Documents/opPreviewExperiment-master/procedure/subject-1.csv","legacy","Kafkaesque Koffka","3.2.6","mult","0","a","NA","NA","","l","16661","NA","NA","39403","16661","2","1148","legacy","small","1024","2","48000","-16","experiment","2_7_mult_FI.jpg","1","odd","legacy","128014","NA","104917","NA","NA","3170","NA","3183","88255","128014","130152","45006","86219","3172","mousetracking operator preview effect","0","0","0","no","false","no","1680"
"negative","undefined","1","undefined","undefined","white","no","legacy","legacy","legacy","0","relative","undefined","undefined","10","NA","0","0","0","0","0","0","0","26","26","0","15","0","no","03/05/19 12:01:55","A simple template for the mouse-tracking paradigm","yes","Experiment-FT.osexp","C:\Users\Kristen\Documents\opPreviewExperiment-master\procedure","no","mono","no","24","no","black","no","yes","1050","legacy","10","15","C:/Users/Kristen/Documents/opPreviewExperiment-master/procedure/subject-1.csv","legacy","Kafkaesque Koffka","3.2.6","add","0","l","NA","NA","","l","16661","NA","NA","39403","16661","2","1949","legacy","large","1024","2","48000","-16","experiment","9_7_add_true.jpg","1","odd","legacy","130178","NA","104917","NA","NA","3170","NA","3183","88255","130178","133280","45006","86219","3172","mousetracking operator preview effect","0","0","0","no","true","no","1680"
"negative","undefined","1","undefined","undefined","white","no","legacy","legacy","legacy","0","relative","undefined","undefined","11","NA","0","0","0","0","0","0","0","27","27","0","15","0","no","03/05/19 12:01:55","A simple template for the mouse-tracking paradigm","yes","Experiment-FT.osexp","C:\Users\Kristen\Documents\opPreviewExperiment-master\procedure","no","mono","no","24","no","black","no","yes","1050","legacy","11","15","C:/Users/Kristen/Documents/opPreviewExperiment-master/procedure/subject-1.csv","legacy","Kafkaesque Koffka","3.2.6","mult","0","a","NA","NA","","l","16661","NA","NA","39403","16661","2","1552","legacy","small","1024","2","48000","-16","experiment","3_6_mult_FI.jpg","1","odd","legacy","133302","NA","104917","NA","NA","3170","NA","3183","88255","133302","136013","45006","86219","3172","mousetracking operator preview effect","0","0","0","no","false","no","1680"
"negative","undefined","1","undefined","undefined","white","no","legacy","legacy","legacy","0","relative","undefined","undefined","12","NA","0","0","0","0","0","0","0","28","28","0","15","0","no","03/05/19 12:01:55","A simple template for the mouse-tracking paradigm","yes","Experiment-FT.osexp","C:\Users\Kristen\Documents\opPreviewExperiment-master\procedure","no","mono","no","24","no","black","no","yes","1050","legacy","12","15","C:/Users/Kristen/Documents/opPreviewExperiment-master/procedure/subject-1.csv","legacy","Kafkaesque Koffka","3.2.6","mult","0","a","NA","NA","","l","16661","NA","NA","39403","16661","2","1574","legacy","small","1024","2","48000","-16","experiment","8_2_mult_FNI.jpg","1","odd","legacy","136042","NA","104917","NA","NA","3170","NA","3183","88255","136042","138787","45006","86219","3172","mousetracking operator preview effect","0","0","0","no","false","no","1680"
"neutral","undefined","1","undefined","undefined","white","no","legacy","legacy","legacy","0","relative","undefined","undefined","13","NA","0","0","0","0","0","0","0","29","29","0","15","0","no","03/05/19 12:01:55","A simple template for the mouse-tracking paradigm","yes","Experiment-FT.osexp","C:\Users\Kristen\Documents\opPreviewExperiment-master\procedure","no","mono","no","24","no","black","no","yes","1050","legacy","13","15","C:/Users/Kristen/Documents/opPreviewExperiment-master/procedure/subject-1.csv","legacy","Kafkaesque Koffka","3.2.6","mult","0","l","NA","NA","","l","16661","NA","NA","39403","16661","2","1979","legacy","small","1024","2","48000","-16","experiment","3_6_mult_true.jpg","1","odd","legacy","138807","NA","104917","NA","NA","3170","NA","3183","88255","138807","141786","45006","86219","3172","mousetracking operator preview effect","0","0","0","no","true","no","1680"
"neutral","undefined","0","undefined","undefined","white","no","legacy","legacy","legacy","0","relative","undefined","undefined","14","NA","0","0","0","0","0","0","0","30","30","0","15","0","no","03/05/19 12:01:55","A simple template for the mouse-tracking paradigm","yes","Experiment-FT.osexp","C:\Users\Kristen\Documents\opPreviewExperiment-master\procedure","no","mono","no","24","no","black","no","yes","1050","legacy","14","15","C:/Users/Kristen/Documents/opPreviewExperiment-master/procedure/subject-1.csv","legacy","Kafkaesque Koffka","3.2.6","add","0","l","NA","NA","","l","16661","NA","NA","39403","16661","2","1912","legacy","large","1024","2","48000","-16","experiment","8_4_add_FI.jpg","1","odd","legacy","141806","NA","104917","NA","NA","3170","NA","3183","88255","141806","145732","45006","86219","3172","mousetracking operator preview effect","0","0","0","no","false","no","1680"
"negative","undefined","1","undefined","undefined","white","no","legacy","legacy","legacy","0","relative","undefined","undefined","15","NA","0","0","0","0","0","0","0","31","31","0","15","0","no","03/05/19 12:01:55","A simple template for the mouse-tracking paradigm","yes","Experiment-FT.osexp","C:\Users\Kristen\Documents\opPreviewExperiment-master\procedure","no","mono","no","24","no","black","no","yes","1050","legacy","15","15","C:/Users/Kristen/Documents/opPreviewExperiment-master/procedure/subject-1.csv","legacy","Kafkaesque Koffka","3.2.6","add","0","l","NA","NA","","l","16661","NA","NA","39403","16661","2","2302","legacy","large","1024","2","48000","-16","experiment","9_7_add_true.jpg","1","odd","legacy","145769","NA","104917","NA","NA","3170","NA","3183","88255","145769","149225","45006","86219","3172","mousetracking operator preview effect","0","0","0","no","true","no","1680"
"neutral","undefined","1","undefined","undefined","white","no","legacy","legacy","legacy","0","relative","undefined","undefined","16","NA","0","0","0","0","0","0","0","32","32","0","15","0","no","03/05/19 12:01:55","A simple template for the mouse-tracking paradigm","yes","Experiment-FT.osexp","C:\Users\Kristen\Documents\opPreviewExperiment-master\procedure","no","mono","no","24","no","black","no","yes","1050","legacy","16","15","C:/Users/Kristen/Documents/opPreviewExperiment-master/procedure/subject-1.csv","legacy","Kafkaesque Koffka","3.2.6","mult","0","a","NA","NA","","l","16661","NA","NA","39403","16661","2","1044","legacy","large","1024","2","48000","-16","experiment","8_4_mult_FNI.jpg","1","odd","legacy","149249","NA","104917","NA","NA","3170","NA","3183","88255","149249","151284","45006","86219","3172","mousetracking operator preview effect","0","0","0","no","false","no","1680"
"neutral","undefined","1","undefined","undefined","white","no","legacy","legacy","legacy","0","relative","undefined","undefined","17","NA","0","0","0","0","0","0","0","33","33","0","15","0","no","03/05/19 12:01:55","A simple template for the mouse-tracking paradigm","yes","Experiment-FT.osexp","C:\Users\Kristen\Documents\opPreviewExperiment-master\procedure","no","mono","no","24","no","black","no","yes","1050","legacy","17","15","C:/Users/Kristen/Documents/opPreviewExperiment-master/procedure/subject-1.csv","legacy","Kafkaesque Koffka","3.2.6","mult","0","l","NA","NA","","l","16661","NA","NA","39403","16661","2","1140","legacy","large","1024","2","48000","-16","experiment","8_4_mult_true.jpg","1","odd","legacy","151312","NA","104917","NA","NA","3170","NA","3183","88255","151312","153449","45006","86219","3172","mousetracking operator preview effect","0","0","0","no","true","no","1680"
"negative","undefined","1","undefined","undefined","white","no","legacy","legacy","legacy","0","relative","undefined","undefined","18","NA","0","0","0","0","0","0","0","34","34","0","15","0","no","03/05/19 12:01:55","A simple template for the mouse-tracking paradigm","yes","Experiment-FT.osexp","C:\Users\Kristen\Documents\opPreviewExperiment-master\procedure","no","mono","no","24","no","black","no","yes","1050","legacy","18","15","C:/Users/Kristen/Documents/opPreviewExperiment-master/procedure/subject-1.csv","legacy","Kafkaesque Koffka","3.2.6","mult","0","a","NA","NA","","l","16661","NA","NA","39403","16661","2","1115","legacy","small","1024","2","48000","-16","experiment","3_6_mult_FNI.jpg","1","odd","legacy","153470","NA","104917","NA","NA","3170","NA","3183","88255","153470","155750","45006","86219","3172","mousetracking operator preview effect","0","0","0","no","false","no","1680"
"negative","undefined","1","undefined","undefined","white","no","legacy","legacy","legacy","0","relative","undefined","undefined","19","NA","0","0","0","0","0","0","0","35","35","0","15","0","no","03/05/19 12:01:55","A simple template for the mouse-tracking paradigm","yes","Experiment-FT.osexp","C:\Users\Kristen\Documents\opPreviewExperiment-master\procedure","no","mono","no","24","no","black","no","yes","1050","legacy","19","15","C:/Users/Kristen/Documents/opPreviewExperiment-master/procedure/subject-1.csv","legacy","Kafkaesque Koffka","3.2.6","add","0","a","NA","NA","","l","16661","NA","NA","39403","16661","2","1635","legacy","large","1024","2","48000","-16","experiment","6_8_add_FI.jpg","1","odd","legacy","155780","NA","104917","NA","NA","3170","NA","3183","88255","155780","158585","45006","86219","3172","mousetracking operator preview effect","0","0","0","no","false","no","1680"
"neutral","undefined","1","undefined","undefined","white","no","legacy","legacy","legacy","0","relative","undefined","undefined","20","NA","0","0","0","0","0","0","0","36","36","0","15","0","no","03/05/19 12:01:55","A simple template for the mouse-tracking paradigm","yes","Experiment-FT.osexp","C:\Users\Kristen\Documents\opPreviewExperiment-master\procedure","no","mono","no","24","no","black","no","yes","1050","legacy","20","15","C:/Users/Kristen/Documents/opPreviewExperiment-master/procedure/subject-1.csv","legacy","Kafkaesque Koffka","3.2.6","add","0","a","NA","NA","","l","16661","NA","NA","39403","16661","2","1104","legacy","large","1024","2","48000","-16","experiment","6_8_add_FI.jpg","1","odd","legacy","158606","NA","104917","NA","NA","3170","NA","3183","88255","158606","160683","45006","86219","3172","mousetracking operator preview effect","0","0","0","no","false","no","1680"
"negative","undefined","1","undefined","undefined","white","no","legacy","legacy","legacy","0","relative","undefined","undefined","21","NA","0","0","0","0","0","0","0","37","37","0","15","0","no","03/05/19 12:01:55","A simple template for the mouse-tracking paradigm","yes","Experiment-FT.osexp","C:\Users\Kristen\Documents\opPreviewExperiment-master\procedure","no","mono","no","24","no","black","no","yes","1050","legacy","21","15","C:/Users/Kristen/Documents/opPreviewExperiment-master/procedure/subject-1.csv","legacy","Kafkaesque Koffka","3.2.6","add","0","l","NA","NA","","l","16661","NA","NA","39403","16661","2","1276","legacy","large","1024","2","48000","-16","experiment","8_4_add_true.jpg","1","odd","legacy","160714","NA","104917","NA","NA","3170","NA","3183","88255","160714","163161","45006","86219","3172","mousetracking operator preview effect","0","0","0","no","true","no","1680"
"negative","undefined","1","undefined","undefined","white","no","legacy","legacy","legacy","0","relative","undefined","undefined","22","NA","0","0","0","0","0","0","0","38","38","0","15","0","no","03/05/19 12:01:55","A simple template for the mouse-tracking paradigm","yes","Experiment-FT.osexp","C:\Users\Kristen\Documents\opPreviewExperiment-master\procedure","no","mono","no","24","no","black","no","yes","1050","legacy","22","15","C:/Users/Kristen/Documents/opPreviewExperiment-master/procedure/subject-1.csv","legacy","Kafkaesque Koffka","3.2.6","add","0","l","NA","NA","","l","16661","NA","NA","39403","16661","2","1157","legacy","large","1024","2","48000","-16","experiment","8_4_add_true.jpg","1","odd","legacy","163183","NA","104917","NA","NA","3170","NA","3183","88255","163183","165467","45006","86219","3172","mousetracking operator preview effect","0","0","0","no","true","no","1680"
"neutral","undefined","1","undefined","undefined","white","no","legacy","legacy","legacy","0","relative","undefined","undefined","23","NA","0","0","0","0","0","0","0","39","39","0","15","0","no","03/05/19 12:01:55","A simple template for the mouse-tracking paradigm","yes","Experiment-FT.osexp","C:\Users\Kristen\Documents\opPreviewExperiment-master\procedure","no","mono","no","24","no","black","no","yes","1050","legacy","23","15","C:/Users/Kristen/Documents/opPreviewExperiment-master/procedure/subject-1.csv","legacy","Kafkaesque Koffka","3.2.6","add","0","a","NA","NA","","l","16661","NA","NA","39403","16661","2","1438","legacy","small","1024","2","48000","-16","experiment","5_3_add_FNI.jpg","1","odd","legacy","165497","NA","104917","NA","NA","3170","NA","3183","88255","165498","167933","45006","86219","3172","mousetracking operator preview effect","0","0","0","no","false","no","1680"
"negative","undefined","0","undefined","undefined","white","no","legacy","legacy","legacy","0","relative","undefined","undefined","24","NA","0","0","0","0","0","0","0","40","40","0","15","0","no","03/05/19 12:01:55","A simple template for the mouse-tracking paradigm","yes","Experiment-FT.osexp","C:\Users\Kristen\Documents\opPreviewExperiment-master\procedure","no","mono","no","24","no","black","no","yes","1050","legacy","24","15","C:/Users/Kristen/Documents/opPreviewExperiment-master/procedure/subject-1.csv","legacy","Kafkaesque Koffka","3.2.6","mult","0","l","NA","NA","","l","16661","NA","NA","39403","16661","2","919","legacy","small","1024","2","48000","-16","experiment","5_3_mult_FNI.jpg","1","odd","legacy","167962","NA","104917","NA","NA","3170","NA","3183","88255","167962","171070","45006","86219","3172","mousetracking operator preview effect","0","0","0","no","false","no","1680"
"neutral","undefined","1","undefined","undefined","white","no","legacy","legacy","legacy","0","relative","undefined","undefined","25","NA","0","0","0","0","0","0","0","41","41","0","15","0","no","03/05/19 12:01:55","A simple template for the mouse-tracking paradigm","yes","Experiment-FT.osexp","C:\Users\Kristen\Documents\opPreviewExperiment-master\procedure","no","mono","no","24","no","black","no","yes","1050","legacy","25","15","C:/Users/Kristen/Documents/opPreviewExperiment-master/procedure/subject-1.csv","legacy","Kafkaesque Koffka","3.2.6","add","0","a","NA","NA","","l","16661","NA","NA","39403","16661","2","1205","legacy","small","1024","2","48000","-16","experiment","2_7_add_FI.jpg","1","odd","legacy","171110","NA","104917","NA","NA","3170","NA","3183","88255","171111","173292","45006","86219","3172","mousetracking operator preview effect","0","0","0","no","false","no","1680"
"neutral","undefined","1","undefined","undefined","white","no","legacy","legacy","legacy","0","relative","undefined","undefined","26","NA","0","0","0","0","0","0","0","42","42","0","15","0","no","03/05/19 12:01:55","A simple template for the mouse-tracking paradigm","yes","Experiment-FT.osexp","C:\Users\Kristen\Documents\opPreviewExperiment-master\procedure","no","mono","no","24","no","black","no","yes","1050","legacy","26","15","C:/Users/Kristen/Documents/opPreviewExperiment-master/procedure/subject-1.csv","legacy","Kafkaesque Koffka","3.2.6","mult","0","a","NA","NA","","l","16661","NA","NA","39403","16661","2","1144","legacy","large","1024","2","48000","-16","experiment","9_7_mult_FI.jpg","1","odd","legacy","173322","NA","104917","NA","NA","3170","NA","3183","88255","173322","175446","45006","86219","3172","mousetracking operator preview effect","0","0","0","no","false","no","1680"
"negative","undefined","1","undefined","undefined","white","no","legacy","legacy","legacy","0","relative","undefined","undefined","27","NA","0","0","0","0","0","0","0","43","43","0","15","0","no","03/05/19 12:01:55","A simple template for the mouse-tracking paradigm","yes","Experiment-FT.osexp","C:\Users\Kristen\Documents\opPreviewExperiment-master\procedure","no","mono","no","24","no","black","no","yes","1050","legacy","27","15","C:/Users/Kristen/Documents/opPreviewExperiment-master/procedure/subject-1.csv","legacy","Kafkaesque Koffka","3.2.6","mult","0","a","NA","NA","","l","16661","NA","NA","39403","16661","2","1188","legacy","large","1024","2","48000","-16","experiment","6_8_mult_FI.jpg","1","odd","legacy","175467","NA","104917","NA","NA","3170","NA","3183","88255","175467","177827","45006","86219","3172","mousetracking operator preview effect","0","0","0","no","false","no","1680"
"negative","undefined","1","undefined","undefined","white","no","legacy","legacy","legacy","0","relative","undefined","undefined","28","NA","0","0","0","0","0","0","0","44","44","0","15","0","no","03/05/19 12:01:55","A simple template for the mouse-tracking paradigm","yes","Experiment-FT.osexp","C:\Users\Kristen\Documents\opPreviewExperiment-master\procedure","no","mono","no","24","no","black","no","yes","1050","legacy","28","15","C:/Users/Kristen/Documents/opPreviewExperiment-master/procedure/subject-1.csv","legacy","Kafkaesque Koffka","3.2.6","add","0","a","NA","NA","","l","16661","NA","NA","39403","16661","2","1010","legacy","small","1024","2","48000","-16","experiment","2_7_add_FNI.jpg","1","odd","legacy","177848","NA","104917","NA","NA","3170","NA","3183","88255","177848","180031","45006","86219","3172","mousetracking operator preview effect","0","0","0","no","false","no","1680"
"negative","undefined","1","undefined","undefined","white","no","legacy","legacy","legacy","0","relative","undefined","undefined","29","NA","0","0","0","0","0","0","0","45","45","0","15","0","no","03/05/19 12:01:55","A simple template for the mouse-tracking paradigm","yes","Experiment-FT.osexp","C:\Users\Kristen\Documents\opPreviewExperiment-master\procedure","no","mono","no","24","no","black","no","yes","1050","legacy","29","15","C:/Users/Kristen/Documents/opPreviewExperiment-master/procedure/subject-1.csv","legacy","Kafkaesque Koffka","3.2.6","mult","0","a","NA","NA","","l","16661","NA","NA","39403","16661","2","1293","legacy","small","1024","2","48000","-16","experiment","8_2_mult_FI.jpg","1","odd","legacy","180061","NA","104917","NA","NA","3170","NA","3183","88255","180061","182532","45006","86219","3172","mousetracking operator preview effect","0","0","0","no","false","no","1680"
"neutral","undefined","1","undefined","undefined","white","no","legacy","legacy","legacy","0","relative","undefined","undefined","30","NA","0","0","0","0","0","0","0","46","46","0","15","0","no","03/05/19 12:01:55","A simple template for the mouse-tracking paradigm","yes","Experiment-FT.osexp","C:\Users\Kristen\Documents\opPreviewExperiment-master\procedure","no","mono","no","24","no","black","no","yes","1050","legacy","30","15","C:/Users/Kristen/Documents/opPreviewExperiment-master/procedure/subject-1.csv","legacy","Kafkaesque Koffka","3.2.6","mult","0","l","NA","NA","","l","16661","NA","NA","39403","16661","2","1524","legacy","large","1024","2","48000","-16","experiment","9_7_mult_true.jpg","1","odd","legacy","182553","NA","104917","NA","NA","3170","NA","3183","88255","182553","185073","45006","86219","3172","mousetracking operator preview effect","0","0","0","no","true","no","1680"
"negative","undefined","1","undefined","undefined","white","no","legacy","legacy","legacy","0","relative","undefined","undefined","31","NA","0","0","0","0","0","0","0","47","47","0","15","0","no","03/05/19 12:01:55","A simple template for the mouse-tracking paradigm","yes","Experiment-FT.osexp","C:\Users\Kristen\Documents\opPreviewExperiment-master\procedure","no","mono","no","24","no","black","no","yes","1050","legacy","31","15","C:/Users/Kristen/Documents/opPreviewExperiment-master/procedure/subject-1.csv","legacy","Kafkaesque Koffka","3.2.6","mult","0","l","NA","NA","","l","16661","NA","NA","39403","16661","2","774","legacy","small","1024","2","48000","-16","experiment","2_7_mult_true.jpg","1","odd","legacy","185094","NA","104917","NA","NA","3170","NA","3183","88255","185094","187029","45006","86219","3172","mousetracking operator preview effect","0","0","0","no","true","no","1680"
"negative","undefined","1","undefined","undefined","white","no","legacy","legacy","legacy","0","relative","undefined","undefined","32","NA","0","0","0","0","0","0","0","48","48","0","15","0","no","03/05/19 12:01:55","A simple template for the mouse-tracking paradigm","yes","Experiment-FT.osexp","C:\Users\Kristen\Documents\opPreviewExperiment-master\procedure","no","mono","no","24","no","black","no","yes","1050","legacy","32","15","C:/Users/Kristen/Documents/opPreviewExperiment-master/procedure/subject-1.csv","legacy","Kafkaesque Koffka","3.2.6","mult","0","l","NA","NA","","l","16661","NA","NA","39403","16661","2","1078","legacy","large","1024","2","48000","-16","experiment","8_4_mult_true.jpg","1","odd","legacy","187054","NA","104917","NA","NA","3170","NA","3183","88255","187054","189287","45006","86219","3172","mousetracking operator preview effect","0","0","0","no","true","no","1680"
"negative","undefined","1","undefined","undefined","white","no","legacy","legacy","legacy","0","relative","undefined","undefined","33","NA","0","0","0","0","0","0","0","49","49","0","15","0","no","03/05/19 12:01:55","A simple template for the mouse-tracking paradigm","yes","Experiment-FT.osexp","C:\Users\Kristen\Documents\opPreviewExperiment-master\procedure","no","mono","no","24","no","black","no","yes","1050","legacy","33","15","C:/Users/Kristen/Documents/opPreviewExperiment-master/procedure/subject-1.csv","legacy","Kafkaesque Koffka","3.2.6","mult","0","l","NA","NA","","l","16661","NA","NA","39403","16661","2","983","legacy","small","1024","2","48000","-16","experiment","8_2_mult_true.jpg","1","odd","legacy","189308","NA","104917","NA","NA","3170","NA","3183","88255","189308","191447","45006","86219","3172","mousetracking operator preview effect","0","0","0","no","true","no","1680"
"negative","undefined","1","undefined","undefined","white","no","legacy","legacy","legacy","0","relative","undefined","undefined","34","NA","0","0","0","0","0","0","0","50","50","0","15","0","no","03/05/19 12:01:55","A simple template for the mouse-tracking paradigm","yes","Experiment-FT.osexp","C:\Users\Kristen\Documents\opPreviewExperiment-master\procedure","no","mono","no","24","no","black","no","yes","1050","legacy","34","15","C:/Users/Kristen/Documents/opPreviewExperiment-master/procedure/subject-1.csv","legacy","Kafkaesque Koffka","3.2.6","add","0","a","NA","NA","","l","16661","NA","NA","39403","16661","2","1758","legacy","large","1024","2","48000","-16","experiment","9_7_add_FI.jpg","1","odd","legacy","191476","NA","104917","NA","NA","3170","NA","3183","88255","191476","194409","45006","86219","3172","mousetracking operator preview effect","0","0","0","no","false","no","1680"
"negative","undefined","1","undefined","undefined","white","no","legacy","legacy","legacy","0","relative","undefined","undefined","35","NA","0","0","0","0","0","0","0","51","51","0","15","0","no","03/05/19 12:01:55","A simple template for the mouse-tracking paradigm","yes","Experiment-FT.osexp","C:\Users\Kristen\Documents\opPreviewExperiment-master\procedure","no","mono","no","24","no","black","no","yes","1050","legacy","35","15","C:/Users/Kristen/Documents/opPreviewExperiment-master/procedure/subject-1.csv","legacy","Kafkaesque Koffka","3.2.6","mult","0","l","NA","NA","","l","16661","NA","NA","39403","16661","2","1412","legacy","large","1024","2","48000","-16","experiment","4_9_mult_true.jpg","1","odd","legacy","194435","NA","104917","NA","NA","3170","NA","3183","88255","194435","196984","45006","86219","3172","mousetracking operator preview effect","0","0","0","no","true","no","1680"
"negative","undefined","1","undefined","undefined","white","no","legacy","legacy","legacy","0","relative","undefined","undefined","36","NA","0","0","0","0","0","0","0","52","52","0","15","0","no","03/05/19 12:01:55","A simple template for the mouse-tracking paradigm","yes","Experiment-FT.osexp","C:\Users\Kristen\Documents\opPreviewExperiment-master\procedure","no","mono","no","24","no","black","no","yes","1050","legacy","36","15","C:/Users/Kristen/Documents/opPreviewExperiment-master/procedure/subject-1.csv","legacy","Kafkaesque Koffka","3.2.6","mult","0","l","NA","NA","","l","16661","NA","NA","39403","16661","2","1474","legacy","large","1024","2","48000","-16","experiment","8_4_mult_true.jpg","1","odd","legacy","197017","NA","104917","NA","NA","3170","NA","3183","88255","197017","199642","45006","86219","3172","mousetracking operator preview effect","0","0","0","no","true","no","1680"
"neutral","undefined","1","undefined","undefined","white","no","legacy","legacy","legacy","0","relative","undefined","undefined","37","NA","0","0","0","0","0","0","0","53","53","0","15","0","no","03/05/19 12:01:55","A simple template for the mouse-tracking paradigm","yes","Experiment-FT.osexp","C:\Users\Kristen\Documents\opPreviewExperiment-master\procedure","no","mono","no","24","no","black","no","yes","1050","legacy","37","15","C:/Users/Kristen/Documents/opPreviewExperiment-master/procedure/subject-1.csv","legacy","Kafkaesque Koffka","3.2.6","mult","0","l","NA","NA","","l","16661","NA","NA","39403","16661","2","818","legacy","large","1024","2","48000","-16","experiment","8_4_mult_true.jpg","1","odd","legacy","199663","NA","104917","NA","NA","3170","NA","3183","88255","199663","201457","45006","86219","3172","mousetracking operator preview effect","0","0","0","no","true","no","1680"
"neutral","undefined","1","undefined","undefined","white","no","legacy","legacy","legacy","0","relative","undefined","undefined","38","NA","0","0","0","0","0","0","0","54","54","0","15","0","no","03/05/19 12:01:55","A simple template for the mouse-tracking paradigm","yes","Experiment-FT.osexp","C:\Users\Kristen\Documents\opPreviewExperiment-master\procedure","no","mono","no","24","no","black","no","yes","1050","legacy","38","15","C:/Users/Kristen/Documents/opPreviewExperiment-master/procedure/subject-1.csv","legacy","Kafkaesque Koffka","3.2.6","mult","0","a","NA","NA","","l","16661","NA","NA","39403","16661","2","1420","legacy","small","1024","2","48000","-16","experiment","5_3_mult_FI.jpg","1","odd","legacy","201486","NA","104917","NA","NA","3170","NA","3183","88255","201486","203908","45006","86219","3172","mousetracking operator preview effect","0","0","0","no","false","no","1680"
"negative","undefined","1","undefined","undefined","white","no","legacy","legacy","legacy","0","relative","undefined","undefined","39","NA","0","0","0","0","0","0","0","55","55","0","15","0","no","03/05/19 12:01:55","A simple template for the mouse-tracking paradigm","yes","Experiment-FT.osexp","C:\Users\Kristen\Documents\opPreviewExperiment-master\procedure","no","mono","no","24","no","black","no","yes","1050","legacy","39","15","C:/Users/Kristen/Documents/opPreviewExperiment-master/procedure/subject-1.csv","legacy","Kafkaesque Koffka","3.2.6","mult","0","a","NA","NA","","l","16661","NA","NA","39403","16661","2","866","legacy","small","1024","2","48000","-16","experiment","2_7_mult_FNI.jpg","1","odd","legacy","203928","NA","104917","NA","NA","3170","NA","3183","88255","203928","205973","45006","86219","3172","mousetracking operator preview effect","0","0","0","no","false","no","1680"
"negative","undefined","1","undefined","undefined","white","no","legacy","legacy","legacy","0","relative","undefined","undefined","40","NA","0","0","0","0","0","0","0","56","56","0","15","0","no","03/05/19 12:01:55","A simple template for the mouse-tracking paradigm","yes","Experiment-FT.osexp","C:\Users\Kristen\Documents\opPreviewExperiment-master\procedure","no","mono","no","24","no","black","no","yes","1050","legacy","40","15","C:/Users/Kristen/Documents/opPreviewExperiment-master/procedure/subject-1.csv","legacy","Kafkaesque Koffka","3.2.6","mult","0","l","NA","NA","","l","16661","NA","NA","39403","16661","2","1134","legacy","small","1024","2","48000","-16","experiment","5_3_mult_true.jpg","1","odd","legacy","205988","NA","104917","NA","NA","3170","NA","3183","88255","205988","208299","45006","86219","3172","mousetracking operator preview effect","0","0","0","no","true","no","1680"
"neutral","undefined","1","undefined","undefined","white","no","legacy","legacy","legacy","0","relative","undefined","undefined","41","NA","0","0","0","0","0","0","0","57","57","0","15","0","no","03/05/19 12:01:55","A simple template for the mouse-tracking paradigm","yes","Experiment-FT.osexp","C:\Users\Kristen\Documents\opPreviewExperiment-master\procedure","no","mono","no","24","no","black","no","yes","1050","legacy","41","15","C:/Users/Kristen/Documents/opPreviewExperiment-master/procedure/subject-1.csv","legacy","Kafkaesque Koffka","3.2.6","add","0","a","NA","NA","","l","16661","NA","NA","39403","16661","2","3104","legacy","large","1024","2","48000","-16","experiment","8_4_add_FNI.jpg","1","odd","legacy","208330","NA","104917","NA","NA","3170","NA","3183","88255","208330","212431","45006","86219","3172","mousetracking operator preview effect","0","0","0","no","false","no","1680"
"negative","undefined","1","undefined","undefined","white","no","legacy","legacy","legacy","0","relative","undefined","undefined","42","NA","0","0","0","0","0","0","0","58","58","0","15","0","no","03/05/19 12:01:55","A simple template for the mouse-tracking paradigm","yes","Experiment-FT.osexp","C:\Users\Kristen\Documents\opPreviewExperiment-master\procedure","no","mono","no","24","no","black","no","yes","1050","legacy","42","15","C:/Users/Kristen/Documents/opPreviewExperiment-master/procedure/subject-1.csv","legacy","Kafkaesque Koffka","3.2.6","mult","0","a","NA","NA","","l","16661","NA","NA","39403","16661","2","1109","legacy","large","1024","2","48000","-16","experiment","6_8_mult_FNI.jpg","1","odd","legacy","212453","NA","104917","NA","NA","3170","NA","3183","88255","212453","214722","45006","86219","3172","mousetracking operator preview effect","0","0","0","no","false","no","1680"
"neutral","undefined","1","undefined","undefined","white","no","legacy","legacy","legacy","0","relative","undefined","undefined","43","NA","0","0","0","0","0","0","0","59","59","0","15","0","no","03/05/19 12:01:55","A simple template for the mouse-tracking paradigm","yes","Experiment-FT.osexp","C:\Users\Kristen\Documents\opPreviewExperiment-master\procedure","no","mono","no","24","no","black","no","yes","1050","legacy","43","15","C:/Users/Kristen/Documents/opPreviewExperiment-master/procedure/subject-1.csv","legacy","Kafkaesque Koffka","3.2.6","mult","0","a","NA","NA","","l","16661","NA","NA","39403","16661","2","1549","legacy","large","1024","2","48000","-16","experiment","8_4_mult_FI.jpg","1","odd","legacy","214752","NA","104917","NA","NA","3170","NA","3183","88255","214752","217278","45006","86219","3172","mousetracking operator preview effect","0","0","0","no","false","no","1680"
"negative","undefined","1","undefined","undefined","white","no","legacy","legacy","legacy","0","relative","undefined","undefined","44","NA","0","0","0","0","0","0","0","60","60","0","15","0","no","03/05/19 12:01:55","A simple template for the mouse-tracking paradigm","yes","Experiment-FT.osexp","C:\Users\Kristen\Documents\opPreviewExperiment-master\procedure","no","mono","no","24","no","black","no","yes","1050","legacy","44","15","C:/Users/Kristen/Documents/opPreviewExperiment-master/procedure/subject-1.csv","legacy","Kafkaesque Koffka","3.2.6","add","0","l","NA","NA","","l","16661","NA","NA","39403","16661","2","820","legacy","large","1024","2","48000","-16","experiment","6_8_add_true.jpg","1","odd","legacy","217298","NA","104917","NA","NA","3170","NA","3183","88255","217299","219290","45006","86219","3172","mousetracking operator preview effect","0","0","0","no","true","no","1680"
"neutral","undefined","1","undefined","undefined","white","no","legacy","legacy","legacy","0","relative","undefined","undefined","45","NA","0","0","0","0","0","0","0","61","61","0","15","0","no","03/05/19 12:01:55","A simple template for the mouse-tracking paradigm","yes","Experiment-FT.osexp","C:\Users\Kristen\Documents\opPreviewExperiment-master\procedure","no","mono","no","24","no","black","no","yes","1050","legacy","45","15","C:/Users/Kristen/Documents/opPreviewExperiment-master/procedure/subject-1.csv","legacy","Kafkaesque Koffka","3.2.6","mult","0","l","NA","NA","","l","16661","NA","NA","39403","16661","2","888","legacy","small","1024","2","48000","-16","experiment","8_2_mult_true.jpg","1","odd","legacy","219311","NA","104917","NA","NA","3170","NA","3183","88255","219311","221179","45006","86219","3172","mousetracking operator preview effect","0","0","0","no","true","no","1680"
"neutral","undefined","1","undefined","undefined","white","no","legacy","legacy","legacy","0","relative","undefined","undefined","46","NA","0","0","0","0","0","0","0","62","62","0","15","0","no","03/05/19 12:01:55","A simple template for the mouse-tracking paradigm","yes","Experiment-FT.osexp","C:\Users\Kristen\Documents\opPreviewExperiment-master\procedure","no","mono","no","24","no","black","no","yes","1050","legacy","46","15","C:/Users/Kristen/Documents/opPreviewExperiment-master/procedure/subject-1.csv","legacy","Kafkaesque Koffka","3.2.6","add","0","l","NA","NA","","l","16661","NA","NA","39403","16661","2","820","legacy","small","1024","2","48000","-16","experiment","2_7_add_true.jpg","1","odd","legacy","221208","NA","104917","NA","NA","3170","NA","3183","88255","221208","223030","45006","86219","3172","mousetracking operator preview effect","0","0","0","no","true","no","1680"
"negative","undefined","1","undefined","undefined","white","no","legacy","legacy","legacy","0","relative","undefined","undefined","47","NA","0","0","0","0","0","0","0","63","63","0","15","0","no","03/05/19 12:01:55","A simple template for the mouse-tracking paradigm","yes","Experiment-FT.osexp","C:\Users\Kristen\Documents\opPreviewExperiment-master\procedure","no","mono","no","24","no","black","no","yes","1050","legacy","47","15","C:/Users/Kristen/Documents/opPreviewExperiment-master/procedure/subject-1.csv","legacy","Kafkaesque Koffka","3.2.6","mult","0","l","NA","NA","","l","16661","NA","NA","39403","16661","2","795","legacy","small","1024","2","48000","-16","experiment","8_2_mult_true.jpg","1","odd","legacy","223054","NA","104917","NA","NA","3170","NA","3183","88255","223054","224999","45006","86219","3172","mousetracking operator preview effect","0","0","0","no","true","no","1680"
"negative","undefined","1","undefined","undefined","white","no","legacy","legacy","legacy","0","relative","undefined","undefined","48","NA","0","0","0","0","0","0","0","64","64","0","15","0","no","03/05/19 12:01:55","A simple template for the mouse-tracking paradigm","yes","Experiment-FT.osexp","C:\Users\Kristen\Documents\opPreviewExperiment-master\procedure","no","mono","no","24","no","black","no","yes","1050","legacy","48","15","C:/Users/Kristen/Documents/opPreviewExperiment-master/procedure/subject-1.csv","legacy","Kafkaesque Koffka","3.2.6","add","0","a","NA","NA","","l","16661","NA","NA","39403","16661","2","1122","legacy","large","1024","2","48000","-16","experiment","4_9_add_FI.jpg","1","odd","legacy","225020","NA","104917","NA","NA","3170","NA","3183","88255","225020","227315","45006","86219","3172","mousetracking operator preview effect","0","0","0","no","false","no","1680"
"neutral","undefined","0","undefined","undefined","white","no","legacy","legacy","legacy","0","relative","undefined","undefined","49","NA","0","0","0","0","0","0","0","65","65","0","15","0","no","03/05/19 12:01:55","A simple template for the mouse-tracking paradigm","yes","Experiment-FT.osexp","C:\Users\Kristen\Documents\opPreviewExperiment-master\procedure","no","mono","no","24","no","black","no","yes","1050","legacy","49","15","C:/Users/Kristen/Documents/opPreviewExperiment-master/procedure/subject-1.csv","legacy","Kafkaesque Koffka","3.2.6","mult","0","l","NA","NA","","l","16661","NA","NA","39403","16661","2","651","legacy","small","1024","2","48000","-16","experiment","3_6_mult_FI.jpg","1","odd","legacy","227335","NA","104917","NA","NA","3170","NA","3183","88255","227335","229980","45006","86219","3172","mousetracking operator preview effect","0","0","0","no","false","no","1680"
"negative","undefined","1","undefined","undefined","white","no","legacy","legacy","legacy","0","relative","undefined","undefined","50","NA","0","0","0","0","0","0","0","66","66","0","15","0","no","03/05/19 12:01:55","A simple template for the mouse-tracking paradigm","yes","Experiment-FT.osexp","C:\Users\Kristen\Documents\opPreviewExperiment-master\procedure","no","mono","no","24","no","black","no","yes","1050","legacy","50","15","C:/Users/Kristen/Documents/opPreviewExperiment-master/procedure/subject-1.csv","legacy","Kafkaesque Koffka","3.2.6","add","0","a","NA","NA","","l","16661","NA","NA","39403","16661","2","1458","legacy","small","1024","2","48000","-16","experiment","3_6_add_FI.jpg","1","odd","legacy","230023","NA","104917","NA","NA","3170","NA","3183","88255","230023","232653","45006","86219","3172","mousetracking operator preview effect","0","0","0","no","false","no","1680"
"negative","undefined","0","undefined","undefined","white","no","legacy","legacy","legacy","0","relative","undefined","undefined","51","NA","0","0","0","0","0","0","0","67","67","0","15","0","no","03/05/19 12:01:55","A simple template for the mouse-tracking paradigm","yes","Experiment-FT.osexp","C:\Users\Kristen\Documents\opPreviewExperiment-master\procedure","no","mono","no","24","no","black","no","yes","1050","legacy","51","15","C:/Users/Kristen/Documents/opPreviewExperiment-master/procedure/subject-1.csv","legacy","Kafkaesque Koffka","3.2.6","mult","0","l","NA","NA","","l","16661","NA","NA","39403","16661","2","1388","legacy","large","1024","2","48000","-16","experiment","8_4_mult_FI.jpg","1","odd","legacy","232679","NA","104917","NA","NA","3170","NA","3183","88255","232679","236235","45006","86219","3172","mousetracking operator preview effect","0","0","0","no","false","no","1680"
"neutral","undefined","1","undefined","undefined","white","no","legacy","legacy","legacy","0","relative","undefined","undefined","52","NA","0","0","0","0","0","0","0","68","68","0","15","0","no","03/05/19 12:01:55","A simple template for the mouse-tracking paradigm","yes","Experiment-FT.osexp","C:\Users\Kristen\Documents\opPreviewExperiment-master\procedure","no","mono","no","24","no","black","no","yes","1050","legacy","52","15","C:/Users/Kristen/Documents/opPreviewExperiment-master/procedure/subject-1.csv","legacy","Kafkaesque Koffka","3.2.6","add","0","a","NA","NA","","l","16661","NA","NA","39403","16661","2","1069","legacy","small","1024","2","48000","-16","experiment","2_7_add_FNI.jpg","1","odd","legacy","236274","NA","104917","NA","NA","3170","NA","3183","88255","236274","238326","45006","86219","3172","mousetracking operator preview effect","0","0","0","no","false","no","1680"
"neutral","undefined","0","undefined","undefined","white","no","legacy","legacy","legacy","0","relative","undefined","undefined","53","NA","0","0","0","0","0","0","0","69","69","0","15","0","no","03/05/19 12:01:55","A simple template for the mouse-tracking paradigm","yes","Experiment-FT.osexp","C:\Users\Kristen\Documents\opPreviewExperiment-master\procedure","no","mono","no","24","no","black","no","yes","1050","legacy","53","15","C:/Users/Kristen/Documents/opPreviewExperiment-master/procedure/subject-1.csv","legacy","Kafkaesque Koffka","3.2.6","mult","0","l","NA","NA","","l","16661","NA","NA","39403","16661","2","1521","legacy","small","1024","2","48000","-16","experiment","3_6_mult_FNI.jpg","1","odd","legacy","238346","NA","104917","NA","NA","3170","NA","3183","88255","238346","241863","45006","86219","3172","mousetracking operator preview effect","0","0","0","no","false","no","1680"
"neutral","undefined","1","undefined","undefined","white","no","legacy","legacy","legacy","0","relative","undefined","undefined","54","NA","0","0","0","0","0","0","0","70","70","0","15","0","no","03/05/19 12:01:55","A simple template for the mouse-tracking paradigm","yes","Experiment-FT.osexp","C:\Users\Kristen\Documents\opPreviewExperiment-master\procedure","no","mono","no","24","no","black","no","yes","1050","legacy","54","15","C:/Users/Kristen/Documents/opPreviewExperiment-master/procedure/subject-1.csv","legacy","Kafkaesque Koffka","3.2.6","mult","0","l","NA","NA","","l","16661","NA","NA","39403","16661","2","925","legacy","small","1024","2","48000","-16","experiment","5_3_mult_true.jpg","1","odd","legacy","241901","NA","104917","NA","NA","3170","NA","3183","88255","241902","243809","45006","86219","3172","mousetracking operator preview effect","0","0","0","no","true","no","1680"
"neutral","undefined","1","undefined","undefined","white","no","legacy","legacy","legacy","0","relative","undefined","undefined","55","NA","0","0","0","0","0","0","0","71","71","0","15","0","no","03/05/19 12:01:55","A simple template for the mouse-tracking paradigm","yes","Experiment-FT.osexp","C:\Users\Kristen\Documents\opPreviewExperiment-master\procedure","no","mono","no","24","no","black","no","yes","1050","legacy","55","15","C:/Users/Kristen/Documents/opPreviewExperiment-master/procedure/subject-1.csv","legacy","Kafkaesque Koffka","3.2.6","add","0","l","NA","NA","","l","16661","NA","NA","39403","16661","2","2091","legacy","large","1024","2","48000","-16","experiment","4_9_add_true.jpg","1","odd","legacy","243824","NA","104917","NA","NA","3170","NA","3183","88255","243824","246911","45006","86219","3172","mousetracking operator preview effect","0","0","0","no","true","no","1680"
"negative","undefined","0","undefined","undefined","white","no","legacy","legacy","legacy","0","relative","undefined","undefined","56","NA","0","0","0","0","0","0","0","72","72","0","15","0","no","03/05/19 12:01:55","A simple template for the mouse-tracking paradigm","yes","Experiment-FT.osexp","C:\Users\Kristen\Documents\opPreviewExperiment-master\procedure","no","mono","no","24","no","black","no","yes","1050","legacy","56","15","C:/Users/Kristen/Documents/opPreviewExperiment-master/procedure/subject-1.csv","legacy","Kafkaesque Koffka","3.2.6","add","0","l","NA","NA","","l","16661","NA","NA","39403","16661","2","764","legacy","large","1024","2","48000","-16","experiment","8_4_add_FI.jpg","1","odd","legacy","246939","NA","104917","NA","NA","3170","NA","3183","88255","246939","249857","45006","86219","3172","mousetracking operator preview effect","0","0","0","no","false","no","1680"
"neutral","undefined","1","undefined","undefined","white","no","legacy","legacy","legacy","0","relative","undefined","undefined","57","NA","0","0","0","0","0","0","0","73","73","0","15","0","no","03/05/19 12:01:55","A simple template for the mouse-tracking paradigm","yes","Experiment-FT.osexp","C:\Users\Kristen\Documents\opPreviewExperiment-master\procedure","no","mono","no","24","no","black","no","yes","1050","legacy","57","15","C:/Users/Kristen/Documents/opPreviewExperiment-master/procedure/subject-1.csv","legacy","Kafkaesque Koffka","3.2.6","mult","0","a","NA","NA","","l","16661","NA","NA","39403","16661","2","1543","legacy","large","1024","2","48000","-16","experiment","4_9_mult_FNI.jpg","1","odd","legacy","249897","NA","104917","NA","NA","3170","NA","3183","88255","249897","252443","45006","86219","3172","mousetracking operator preview effect","0","0","0","no","false","no","1680"
"neutral","undefined","1","undefined","undefined","white","no","legacy","legacy","legacy","0","relative","undefined","undefined","58","NA","0","0","0","0","0","0","0","74","74","0","15","0","no","03/05/19 12:01:55","A simple template for the mouse-tracking paradigm","yes","Experiment-FT.osexp","C:\Users\Kristen\Documents\opPreviewExperiment-master\procedure","no","mono","no","24","no","black","no","yes","1050","legacy","58","15","C:/Users/Kristen/Documents/opPreviewExperiment-master/procedure/subject-1.csv","legacy","Kafkaesque Koffka","3.2.6","add","0","a","NA","NA","","l","16661","NA","NA","39403","16661","2","2880","legacy","small","1024","2","48000","-16","experiment","3_6_add_FI.jpg","1","odd","legacy","252468","NA","104917","NA","NA","3170","NA","3183","88255","252468","256323","45006","86219","3172","mousetracking operator preview effect","0","0","0","no","false","no","1680"
"neutral","undefined","1","undefined","undefined","white","no","legacy","legacy","legacy","0","relative","undefined","undefined","59","NA","0","0","0","0","0","0","0","75","75","0","15","0","no","03/05/19 12:01:55","A simple template for the mouse-tracking paradigm","yes","Experiment-FT.osexp","C:\Users\Kristen\Documents\opPreviewExperiment-master\procedure","no","mono","no","24","no","black","no","yes","1050","legacy","59","15","C:/Users/Kristen/Documents/opPreviewExperiment-master/procedure/subject-1.csv","legacy","Kafkaesque Koffka","3.2.6","mult","0","l","NA","NA","","l","16661","NA","NA","39403","16661","2","1070","legacy","large","1024","2","48000","-16","experiment","6_8_mult_true.jpg","1","odd","legacy","256343","NA","104917","NA","NA","3170","NA","3183","88255","256343","258406","45006","86219","3172","mousetracking operator preview effect","0","0","0","no","true","no","1680"
"neutral","undefined","1","undefined","undefined","white","no","legacy","legacy","legacy","0","relative","undefined","undefined","60","NA","0","0","0","0","0","0","0","76","76","0","15","0","no","03/05/19 12:01:55","A simple template for the mouse-tracking paradigm","yes","Experiment-FT.osexp","C:\Users\Kristen\Documents\opPreviewExperiment-master\procedure","no","mono","no","24","no","black","no","yes","1050","legacy","60","15","C:/Users/Kristen/Documents/opPreviewExperiment-master/procedure/subject-1.csv","legacy","Kafkaesque Koffka","3.2.6","add","0","l","NA","NA","","l","16661","NA","NA","39403","16661","2","1349","legacy","large","1024","2","48000","-16","experiment","8_4_add_true.jpg","1","odd","legacy","258426","NA","104917","NA","NA","3170","NA","3183","88255","258426","260753","45006","86219","3172","mousetracking operator preview effect","0","0","0","no","true","no","1680"
"negative","undefined","1","undefined","undefined","white","no","legacy","legacy","legacy","0","relative","undefined","undefined","61","NA","0","0","0","0","0","0","0","77","77","0","15","0","no","03/05/19 12:01:55","A simple template for the mouse-tracking paradigm","yes","Experiment-FT.osexp","C:\Users\Kristen\Documents\opPreviewExperiment-master\procedure","no","mono","no","24","no","black","no","yes","1050","legacy","61","15","C:/Users/Kristen/Documents/opPreviewExperiment-master/procedure/subject-1.csv","legacy","Kafkaesque Koffka","3.2.6","mult","0","l","NA","NA","","l","16661","NA","NA","39403","16661","2","1368","legacy","large","1024","2","48000","-16","experiment","9_7_mult_true.jpg","1","odd","legacy","260774","NA","104917","NA","NA","3170","NA","3183","88255","260774","263289","45006","86219","3172","mousetracking operator preview effect","0","0","0","no","true","no","1680"
"neutral","undefined","1","undefined","undefined","white","no","legacy","legacy","legacy","0","relative","undefined","undefined","62","NA","0","0","0","0","0","0","0","78","78","0","15","0","no","03/05/19 12:01:55","A simple template for the mouse-tracking paradigm","yes","Experiment-FT.osexp","C:\Users\Kristen\Documents\opPreviewExperiment-master\procedure","no","mono","no","24","no","black","no","yes","1050","legacy","62","15","C:/Users/Kristen/Documents/opPreviewExperiment-master/procedure/subject-1.csv","legacy","Kafkaesque Koffka","3.2.6","add","0","a","NA","NA","","l","16661","NA","NA","39403","16661","2","1287","legacy","large","1024","2","48000","-16","experiment","9_7_add_FNI.jpg","1","odd","legacy","263316","NA","104917","NA","NA","3170","NA","3183","88255","263316","265599","45006","86219","3172","mousetracking operator preview effect","0","0","0","no","false","no","1680"
"neutral","undefined","1","undefined","undefined","white","no","legacy","legacy","legacy","0","relative","undefined","undefined","63","NA","0","0","0","0","0","0","0","79","79","0","15","0","no","03/05/19 12:01:55","A simple template for the mouse-tracking paradigm","yes","Experiment-FT.osexp","C:\Users\Kristen\Documents\opPreviewExperiment-master\procedure","no","mono","no","24","no","black","no","yes","1050","legacy","63","15","C:/Users/Kristen/Documents/opPreviewExperiment-master/procedure/subject-1.csv","legacy","Kafkaesque Koffka","3.2.6","mult","0","a","NA","NA","","l","16661","NA","NA","39403","16661","2","1669","legacy","small","1024","2","48000","-16","experiment","2_7_mult_FNI.jpg","1","odd","legacy","265622","NA","104917","NA","NA","3170","NA","3183","88255","265622","268267","45006","86219","3172","mousetracking operator preview effect","0","0","0","no","false","no","1680"
"negative","undefined","1","undefined","undefined","white","no","legacy","legacy","legacy","0","relative","undefined","undefined","64","NA","0","0","0","0","0","0","0","80","80","0","15","0","no","03/05/19 12:01:55","A simple template for the mouse-tracking paradigm","yes","Experiment-FT.osexp","C:\Users\Kristen\Documents\opPreviewExperiment-master\procedure","no","mono","no","24","no","black","no","yes","1050","legacy","64","15","C:/Users/Kristen/Documents/opPreviewExperiment-master/procedure/subject-1.csv","legacy","Kafkaesque Koffka","3.2.6","mult","0","a","NA","NA","","l","16661","NA","NA","39403","16661","2","795","legacy","large","1024","2","48000","-16","experiment","8_4_mult_FNI.jpg","1","odd","legacy","268289","NA","104917","NA","NA","3170","NA","3183","88255","268289","270237","45006","86219","3172","mousetracking operator preview effect","0","0","0","no","false","no","1680"
"neutral","undefined","1","undefined","undefined","white","no","legacy","legacy","legacy","0","relative","undefined","undefined","65","NA","0","0","0","0","0","0","0","81","81","0","15","0","no","03/05/19 12:01:55","A simple template for the mouse-tracking paradigm","yes","Experiment-FT.osexp","C:\Users\Kristen\Documents\opPreviewExperiment-master\procedure","no","mono","no","24","no","black","no","yes","1050","legacy","65","15","C:/Users/Kristen/Documents/opPreviewExperiment-master/procedure/subject-1.csv","legacy","Kafkaesque Koffka","3.2.6","mult","0","l","NA","NA","","l","16661","NA","NA","39403","16661","2","694","legacy","small","1024","2","48000","-16","experiment","5_3_mult_true.jpg","1","odd","legacy","270267","NA","104917","NA","NA","3170","NA","3183","88255","270267","271944","45006","86219","3172","mousetracking operator preview effect","0","0","0","no","true","no","1680"
"negative","undefined","1","undefined","undefined","white","no","legacy","legacy","legacy","0","relative","undefined","undefined","66","NA","0","0","0","0","0","0","0","82","82","0","15","0","no","03/05/19 12:01:55","A simple template for the mouse-tracking paradigm","yes","Experiment-FT.osexp","C:\Users\Kristen\Documents\opPreviewExperiment-master\procedure","no","mono","no","24","no","black","no","yes","1050","legacy","66","15","C:/Users/Kristen/Documents/opPreviewExperiment-master/procedure/subject-1.csv","legacy","Kafkaesque Koffka","3.2.6","add","0","a","NA","NA","","l","16661","NA","NA","39403","16661","2","846","legacy","large","1024","2","48000","-16","experiment","8_4_add_FNI.jpg","1","odd","legacy","271974","NA","104917","NA","NA","3170","NA","3183","88255","271974","273964","45006","86219","3172","mousetracking operator preview effect","0","0","0","no","false","no","1680"
"neutral","undefined","1","undefined","undefined","white","no","legacy","legacy","legacy","0","relative","undefined","undefined","67","NA","0","0","0","0","0","0","0","83","83","0","15","0","no","03/05/19 12:01:55","A simple template for the mouse-tracking paradigm","yes","Experiment-FT.osexp","C:\Users\Kristen\Documents\opPreviewExperiment-master\procedure","no","mono","no","24","no","black","no","yes","1050","legacy","67","15","C:/Users/Kristen/Documents/opPreviewExperiment-master/procedure/subject-1.csv","legacy","Kafkaesque Koffka","3.2.6","add","0","a","NA","NA","","l","16661","NA","NA","39403","16661","2","1349","legacy","large","1024","2","48000","-16","experiment","6_8_add_FNI.jpg","1","odd","legacy","273987","NA","104917","NA","NA","3170","NA","3183","88255","273987","276335","45006","86219","3172","mousetracking operator preview effect","0","0","0","no","false","no","1680"
"negative","undefined","1","undefined","undefined","white","no","legacy","legacy","legacy","0","relative","undefined","undefined","68","NA","0","0","0","0","0","0","0","84","84","0","15","0","no","03/05/19 12:01:55","A simple template for the mouse-tracking paradigm","yes","Experiment-FT.osexp","C:\Users\Kristen\Documents\opPreviewExperiment-master\procedure","no","mono","no","24","no","black","no","yes","1050","legacy","68","15","C:/Users/Kristen/Documents/opPreviewExperiment-master/procedure/subject-1.csv","legacy","Kafkaesque Koffka","3.2.6","add","0","a","NA","NA","","l","16661","NA","NA","39403","16661","2","950","legacy","small","1024","2","48000","-16","experiment","3_6_add_FNI.jpg","1","odd","legacy","276365","NA","104917","NA","NA","3170","NA","3183","88255","276365","278496","45006","86219","3172","mousetracking operator preview effect","0","0","0","no","false","no","1680"
"negative","undefined","1","undefined","undefined","white","no","legacy","legacy","legacy","0","relative","undefined","undefined","69","NA","0","0","0","0","0","0","0","85","85","0","15","0","no","03/05/19 12:01:55","A simple template for the mouse-tracking paradigm","yes","Experiment-FT.osexp","C:\Users\Kristen\Documents\opPreviewExperiment-master\procedure","no","mono","no","24","no","black","no","yes","1050","legacy","69","15","C:/Users/Kristen/Documents/opPreviewExperiment-master/procedure/subject-1.csv","legacy","Kafkaesque Koffka","3.2.6","mult","0","l","NA","NA","","l","16661","NA","NA","39403","16661","2","843","legacy","large","1024","2","48000","-16","experiment","6_8_mult_true.jpg","1","odd","legacy","278516","NA","104917","NA","NA","3170","NA","3183","88255","278516","280505","45006","86219","3172","mousetracking operator preview effect","0","0","0","no","true","no","1680"
"negative","undefined","0","undefined","undefined","white","no","legacy","legacy","legacy","0","relative","undefined","undefined","70","NA","0","0","0","0","0","0","0","86","86","0","15","0","no","03/05/19 12:01:55","A simple template for the mouse-tracking paradigm","yes","Experiment-FT.osexp","C:\Users\Kristen\Documents\opPreviewExperiment-master\procedure","no","mono","no","24","no","black","no","yes","1050","legacy","70","15","C:/Users/Kristen/Documents/opPreviewExperiment-master/procedure/subject-1.csv","legacy","Kafkaesque Koffka","3.2.6","add","0","l","NA","NA","","l","16661","NA","NA","39403","16661","2","1036","legacy","small","1024","2","48000","-16","experiment","8_2_add_FI.jpg","1","odd","legacy","280525","NA","104917","NA","NA","3170","NA","3183","88255","280525","283748","45006","86219","3172","mousetracking operator preview effect","0","0","0","no","false","no","1680"
"negative","undefined","1","undefined","undefined","white","no","legacy","legacy","legacy","0","relative","undefined","undefined","71","NA","0","0","0","0","0","0","0","87","87","0","15","0","no","03/05/19 12:01:55","A simple template for the mouse-tracking paradigm","yes","Experiment-FT.osexp","C:\Users\Kristen\Documents\opPreviewExperiment-master\procedure","no","mono","no","24","no","black","no","yes","1050","legacy","71","15","C:/Users/Kristen/Documents/opPreviewExperiment-master/procedure/subject-1.csv","legacy","Kafkaesque Koffka","3.2.6","mult","0","a","NA","NA","","l","16661","NA","NA","39403","16661","2","639","legacy","small","1024","2","48000","-16","experiment","5_3_mult_FI.jpg","1","odd","legacy","283788","NA","104917","NA","NA","3170","NA","3183","88255","283789","285560","45006","86219","3172","mousetracking operator preview effect","0","0","0","no","false","no","1680"
"negative","undefined","1","undefined","undefined","white","no","legacy","legacy","legacy","0","relative","undefined","undefined","72","NA","0","0","0","0","0","0","0","88","88","0","15","0","no","03/05/19 12:01:55","A simple template for the mouse-tracking paradigm","yes","Experiment-FT.osexp","C:\Users\Kristen\Documents\opPreviewExperiment-master\procedure","no","mono","no","24","no","black","no","yes","1050","legacy","72","15","C:/Users/Kristen/Documents/opPreviewExperiment-master/procedure/subject-1.csv","legacy","Kafkaesque Koffka","3.2.6","add","0","l","NA","NA","","l","16661","NA","NA","39403","16661","2","3143","legacy","small","1024","2","48000","-16","experiment","5_3_add_true.jpg","1","odd","legacy","285581","NA","104917","NA","NA","3170","NA","3183","88255","285581","289877","45006","86219","3172","mousetracking operator preview effect","0","0","0","no","true","no","1680"
"neutral","undefined","1","undefined","undefined","white","no","legacy","legacy","legacy","0","relative","undefined","undefined","73","NA","0","0","0","0","0","0","0","89","89","0","15","0","no","03/05/19 12:01:55","A simple template for the mouse-tracking paradigm","yes","Experiment-FT.osexp","C:\Users\Kristen\Documents\opPreviewExperiment-master\procedure","no","mono","no","24","no","black","no","yes","1050","legacy","73","15","C:/Users/Kristen/Documents/opPreviewExperiment-master/procedure/subject-1.csv","legacy","Kafkaesque Koffka","3.2.6","mult","0","a","NA","NA","","l","16661","NA","NA","39403","16661","2","775","legacy","small","1024","2","48000","-16","experiment","8_2_mult_FNI.jpg","1","odd","legacy","289897","NA","104917","NA","NA","3170","NA","3183","88255","289897","291651","45006","86219","3172","mousetracking operator preview effect","0","0","0","no","false","no","1680"
"neutral","undefined","1","undefined","undefined","white","no","legacy","legacy","legacy","0","relative","undefined","undefined","74","NA","0","0","0","0","0","0","0","90","90","0","15","0","no","03/05/19 12:01:55","A simple template for the mouse-tracking paradigm","yes","Experiment-FT.osexp","C:\Users\Kristen\Documents\opPreviewExperiment-master\procedure","no","mono","no","24","no","black","no","yes","1050","legacy","74","15","C:/Users/Kristen/Documents/opPreviewExperiment-master/procedure/subject-1.csv","legacy","Kafkaesque Koffka","3.2.6","add","0","l","NA","NA","","l","16661","NA","NA","39403","16661","2","869","legacy","small","1024","2","48000","-16","experiment","8_2_add_true.jpg","1","odd","legacy","291672","NA","104917","NA","NA","3170","NA","3183","88255","291672","293516","45006","86219","3172","mousetracking operator preview effect","0","0","0","no","true","no","1680"
"neutral","undefined","1","undefined","undefined","white","no","legacy","legacy","legacy","0","relative","undefined","undefined","75","NA","0","0","0","0","0","0","0","91","91","0","15","0","no","03/05/19 12:01:55","A simple template for the mouse-tracking paradigm","yes","Experiment-FT.osexp","C:\Users\Kristen\Documents\opPreviewExperiment-master\procedure","no","mono","no","24","no","black","no","yes","1050","legacy","75","15","C:/Users/Kristen/Documents/opPreviewExperiment-master/procedure/subject-1.csv","legacy","Kafkaesque Koffka","3.2.6","add","0","l","NA","NA","","l","16661","NA","NA","39403","16661","2","894","legacy","large","1024","2","48000","-16","experiment","6_8_add_true.jpg","1","odd","legacy","293530","NA","104917","NA","NA","3170","NA","3183","88255","293530","295411","45006","86219","3172","mousetracking operator preview effect","0","0","0","no","true","no","1680"
"neutral","undefined","1","undefined","undefined","white","no","legacy","legacy","legacy","0","relative","undefined","undefined","76","NA","0","0","0","0","0","0","0","92","92","0","15","0","no","03/05/19 12:01:55","A simple template for the mouse-tracking paradigm","yes","Experiment-FT.osexp","C:\Users\Kristen\Documents\opPreviewExperiment-master\procedure","no","mono","no","24","no","black","no","yes","1050","legacy","76","15","C:/Users/Kristen/Documents/opPreviewExperiment-master/procedure/subject-1.csv","legacy","Kafkaesque Koffka","3.2.6","mult","0","l","NA","NA","","l","16661","NA","NA","39403","16661","2","1023","legacy","large","1024","2","48000","-16","experiment","4_9_mult_true.jpg","1","odd","legacy","295431","NA","104917","NA","NA","3170","NA","3183","88255","295431","297425","45006","86219","3172","mousetracking operator preview effect","0","0","0","no","true","no","1680"
"negative","undefined","1","undefined","undefined","white","no","legacy","legacy","legacy","0","relative","undefined","undefined","77","NA","0","0","0","0","0","0","0","93","93","0","15","0","no","03/05/19 12:01:55","A simple template for the mouse-tracking paradigm","yes","Experiment-FT.osexp","C:\Users\Kristen\Documents\opPreviewExperiment-master\procedure","no","mono","no","24","no","black","no","yes","1050","legacy","77","15","C:/Users/Kristen/Documents/opPreviewExperiment-master/procedure/subject-1.csv","legacy","Kafkaesque Koffka","3.2.6","mult","0","l","NA","NA","","l","16661","NA","NA","39403","16661","2","1837","legacy","large","1024","2","48000","-16","experiment","9_7_mult_true.jpg","1","odd","legacy","297445","NA","104917","NA","NA","3170","NA","3183","88255","297445","300432","45006","86219","3172","mousetracking operator preview effect","0","0","0","no","true","no","1680"
"neutral","undefined","1","undefined","undefined","white","no","legacy","legacy","legacy","0","relative","undefined","undefined","78","NA","0","0","0","0","0","0","0","94","94","0","15","0","no","03/05/19 12:01:55","A simple template for the mouse-tracking paradigm","yes","Experiment-FT.osexp","C:\Users\Kristen\Documents\opPreviewExperiment-master\procedure","no","mono","no","24","no","black","no","yes","1050","legacy","78","15","C:/Users/Kristen/Documents/opPreviewExperiment-master/procedure/subject-1.csv","legacy","Kafkaesque Koffka","3.2.6","mult","0","a","NA","NA","","l","16661","NA","NA","39403","16661","2","1779","legacy","large","1024","2","48000","-16","experiment","4_9_mult_FI.jpg","1","odd","legacy","300453","NA","104917","NA","NA","3170","NA","3183","88255","300453","303224","45006","86219","3172","mousetracking operator preview effect","0","0","0","no","false","no","1680"
"neutral","undefined","0","undefined","undefined","white","no","legacy","legacy","legacy","0","relative","undefined","undefined","79","NA","0","0","0","0","0","0","0","95","95","0","15","0","no","03/05/19 12:01:55","A simple template for the mouse-tracking paradigm","yes","Experiment-FT.osexp","C:\Users\Kristen\Documents\opPreviewExperiment-master\procedure","no","mono","no","24","no","black","no","yes","1050","legacy","79","15","C:/Users/Kristen/Documents/opPreviewExperiment-master/procedure/subject-1.csv","legacy","Kafkaesque Koffka","3.2.6","add","0","a","NA","NA","","l","16661","NA","NA","39403","16661","2","792","legacy","large","1024","2","48000","-16","experiment","4_9_add_true.jpg","1","odd","legacy","303239","NA","104917","NA","NA","3170","NA","3183","88255","303239","306031","45006","86219","3172","mousetracking operator preview effect","0","0","0","no","true","no","1680"
"negative","undefined","1","undefined","undefined","white","no","legacy","legacy","legacy","0","relative","undefined","undefined","80","NA","0","0","0","0","0","0","0","96","96","0","15","0","no","03/05/19 12:01:55","A simple template for the mouse-tracking paradigm","yes","Experiment-FT.osexp","C:\Users\Kristen\Documents\opPreviewExperiment-master\procedure","no","mono","no","24","no","black","no","yes","1050","legacy","80","15","C:/Users/Kristen/Documents/opPreviewExperiment-master/procedure/subject-1.csv","legacy","Kafkaesque Koffka","3.2.6","mult","0","l","NA","NA","","l","16661","NA","NA","39403","16661","2","1002","legacy","small","1024","2","48000","-16","experiment","3_6_mult_true.jpg","1","odd","legacy","306074","NA","104917","NA","NA","3170","NA","3183","88255","306075","308239","45006","86219","3172","mousetracking operator preview effect","0","0","0","no","true","no","1680"
"negative","undefined","0","undefined","undefined","white","no","legacy","legacy","legacy","0","relative","undefined","undefined","81","NA","0","0","0","0","0","0","0","97","97","0","15","0","no","03/05/19 12:01:55","A simple template for the mouse-tracking paradigm","yes","Experiment-FT.osexp","C:\Users\Kristen\Documents\opPreviewExperiment-master\procedure","no","mono","no","24","no","black","no","yes","1050","legacy","81","15","C:/Users/Kristen/Documents/opPreviewExperiment-master/procedure/subject-1.csv","legacy","Kafkaesque Koffka","3.2.6","add","0","a","NA","NA","","l","16661","NA","NA","39403","16661","2","989","legacy","large","1024","2","48000","-16","experiment","4_9_add_true.jpg","1","odd","legacy","308260","NA","104917","NA","NA","3170","NA","3183","88255","308260","311392","45006","86219","3172","mousetracking operator preview effect","0","0","0","no","true","no","1680"
"neutral","undefined","1","undefined","undefined","white","no","legacy","legacy","legacy","0","relative","undefined","undefined","82","NA","0","0","0","0","0","0","0","98","98","0","15","0","no","03/05/19 12:01:55","A simple template for the mouse-tracking paradigm","yes","Experiment-FT.osexp","C:\Users\Kristen\Documents\opPreviewExperiment-master\procedure","no","mono","no","24","no","black","no","yes","1050","legacy","82","15","C:/Users/Kristen/Documents/opPreviewExperiment-master/procedure/subject-1.csv","legacy","Kafkaesque Koffka","3.2.6","add","0","l","NA","NA","","l","16661","NA","NA","39403","16661","2","1170","legacy","small","1024","2","48000","-16","experiment","3_6_add_true.jpg","1","odd","legacy","311436","NA","104917","NA","NA","3170","NA","3183","88255","311437","313588","45006","86219","3172","mousetracking operator preview effect","0","0","0","no","true","no","1680"
"neutral","undefined","1","undefined","undefined","white","no","legacy","legacy","legacy","0","relative","undefined","undefined","83","NA","0","0","0","0","0","0","0","99","99","0","15","0","no","03/05/19 12:01:55","A simple template for the mouse-tracking paradigm","yes","Experiment-FT.osexp","C:\Users\Kristen\Documents\opPreviewExperiment-master\procedure","no","mono","no","24","no","black","no","yes","1050","legacy","83","15","C:/Users/Kristen/Documents/opPreviewExperiment-master/procedure/subject-1.csv","legacy","Kafkaesque Koffka","3.2.6","mult","0","a","NA","NA","","l","16661","NA","NA","39403","16661","2","3253","legacy","large","1024","2","48000","-16","experiment","6_8_mult_FNI.jpg","1","odd","legacy","313603","NA","104917","NA","NA","3170","NA","3183","88255","313603","317827","45006","86219","3172","mousetracking operator preview effect","0","0","0","no","false","no","1680"
"neutral","undefined","0","undefined","undefined","white","no","legacy","legacy","legacy","0","relative","undefined","undefined","84","NA","0","0","0","0","0","0","0","100","100","0","15","0","no","03/05/19 12:01:55","A simple template for the mouse-tracking paradigm","yes","Experiment-FT.osexp","C:\Users\Kristen\Documents\opPreviewExperiment-master\procedure","no","mono","no","24","no","black","no","yes","1050","legacy","84","15","C:/Users/Kristen/Documents/opPreviewExperiment-master/procedure/subject-1.csv","legacy","Kafkaesque Koffka","3.2.6","add","0","l","NA","NA","","l","16661","NA","NA","39403","16661","2","1023","legacy","large","1024","2","48000","-16","experiment","4_9_add_FI.jpg","1","odd","legacy","317840","NA","104917","NA","NA","3170","NA","3183","88255","317840","320851","45006","86219","3172","mousetracking operator preview effect","0","0","0","no","false","no","1680"
"neutral","undefined","1","undefined","undefined","white","no","legacy","legacy","legacy","0","relative","undefined","undefined","85","NA","0","0","0","0","0","0","0","101","101","0","15","0","no","03/05/19 12:01:55","A simple template for the mouse-tracking paradigm","yes","Experiment-FT.osexp","C:\Users\Kristen\Documents\opPreviewExperiment-master\procedure","no","mono","no","24","no","black","no","yes","1050","legacy","85","15","C:/Users/Kristen/Documents/opPreviewExperiment-master/procedure/subject-1.csv","legacy","Kafkaesque Koffka","3.2.6","mult","0","l","NA","NA","","l","16661","NA","NA","39403","16661","2","833","legacy","large","1024","2","48000","-16","experiment","6_8_mult_true.jpg","1","odd","legacy","320892","NA","104917","NA","NA","3170","NA","3183","88255","320893","322707","45006","86219","3172","mousetracking operator preview effect","0","0","0","no","true","no","1680"
"negative","undefined","1","undefined","undefined","white","no","legacy","legacy","legacy","0","relative","undefined","undefined","86","NA","0","0","0","0","0","0","0","102","102","0","15","0","no","03/05/19 12:01:55","A simple template for the mouse-tracking paradigm","yes","Experiment-FT.osexp","C:\Users\Kristen\Documents\opPreviewExperiment-master\procedure","no","mono","no","24","no","black","no","yes","1050","legacy","86","15","C:/Users/Kristen/Documents/opPreviewExperiment-master/procedure/subject-1.csv","legacy","Kafkaesque Koffka","3.2.6","add","0","a","NA","NA","","l","16661","NA","NA","39403","16661","2","2981","legacy","large","1024","2","48000","-16","experiment","9_7_add_FNI.jpg","1","odd","legacy","322728","NA","104917","NA","NA","3170","NA","3183","88255","322728","326862","45006","86219","3172","mousetracking operator preview effect","0","0","0","no","false","no","1680"
"negative","undefined","1","undefined","undefined","white","no","legacy","legacy","legacy","0","relative","undefined","undefined","87","NA","0","0","0","0","0","0","0","103","103","0","15","0","no","03/05/19 12:01:55","A simple template for the mouse-tracking paradigm","yes","Experiment-FT.osexp","C:\Users\Kristen\Documents\opPreviewExperiment-master\procedure","no","mono","no","24","no","black","no","yes","1050","legacy","87","15","C:/Users/Kristen/Documents/opPreviewExperiment-master/procedure/subject-1.csv","legacy","Kafkaesque Koffka","3.2.6","mult","0","l","NA","NA","","l","16661","NA","NA","39403","16661","2","2037","legacy","small","1024","2","48000","-16","experiment","5_3_mult_true.jpg","1","odd","legacy","326883","NA","104917","NA","NA","3170","NA","3183","88255","326883","330068","45006","86219","3172","mousetracking operator preview effect","0","0","0","no","true","no","1680"
"neutral","undefined","1","undefined","undefined","white","no","legacy","legacy","legacy","0","relative","undefined","undefined","88","NA","0","0","0","0","0","0","0","104","104","0","15","0","no","03/05/19 12:01:55","A simple template for the mouse-tracking paradigm","yes","Experiment-FT.osexp","C:\Users\Kristen\Documents\opPreviewExperiment-master\procedure","no","mono","no","24","no","black","no","yes","1050","legacy","88","15","C:/Users/Kristen/Documents/opPreviewExperiment-master/procedure/subject-1.csv","legacy","Kafkaesque Koffka","3.2.6","add","0","a","NA","NA","","l","16661","NA","NA","39403","16661","2","957","legacy","large","1024","2","48000","-16","experiment","4_9_add_FNI.jpg","1","odd","legacy","330090","NA","104917","NA","NA","3170","NA","3183","88255","330090","332024","45006","86219","3172","mousetracking operator preview effect","0","0","0","no","false","no","1680"
"negative","undefined","1","undefined","undefined","white","no","legacy","legacy","legacy","0","relative","undefined","undefined","89","NA","0","0","0","0","0","0","0","105","105","0","15","0","no","03/05/19 12:01:55","A simple template for the mouse-tracking paradigm","yes","Experiment-FT.osexp","C:\Users\Kristen\Documents\opPreviewExperiment-master\procedure","no","mono","no","24","no","black","no","yes","1050","legacy","89","15","C:/Users/Kristen/Documents/opPreviewExperiment-master/procedure/subject-1.csv","legacy","Kafkaesque Koffka","3.2.6","mult","0","a","NA","NA","","l","16661","NA","NA","39403","16661","2","951","legacy","large","1024","2","48000","-16","experiment","4_9_mult_FI.jpg","1","odd","legacy","332045","NA","104917","NA","NA","3170","NA","3183","88255","332045","334148","45006","86219","3172","mousetracking operator preview effect","0","0","0","no","false","no","1680"
"negative","undefined","0","undefined","undefined","white","no","legacy","legacy","legacy","0","relative","undefined","undefined","90","NA","0","0","0","0","0","0","0","106","106","0","15","0","no","03/05/19 12:01:55","A simple template for the mouse-tracking paradigm","yes","Experiment-FT.osexp","C:\Users\Kristen\Documents\opPreviewExperiment-master\procedure","no","mono","no","24","no","black","no","yes","1050","legacy","90","15","C:/Users/Kristen/Documents/opPreviewExperiment-master/procedure/subject-1.csv","legacy","Kafkaesque Koffka","3.2.6","mult","0","l","NA","NA","","l","16661","NA","NA","39403","16661","2","1852","legacy","large","1024","2","48000","-16","experiment","9_7_mult_FNI.jpg","1","odd","legacy","334168","NA","104917","NA","NA","3170","NA","3183","88255","334168","338209","45006","86219","3172","mousetracking operator preview effect","0","0","0","no","false","no","1680"
"neutral","undefined","1","undefined","undefined","white","no","legacy","legacy","legacy","0","relative","undefined","undefined","91","NA","0","0","0","0","0","0","0","107","107","0","15","0","no","03/05/19 12:01:55","A simple template for the mouse-tracking paradigm","yes","Experiment-FT.osexp","C:\Users\Kristen\Documents\opPreviewExperiment-master\procedure","no","mono","no","24","no","black","no","yes","1050","legacy","91","15","C:/Users/Kristen/Documents/opPreviewExperiment-master/procedure/subject-1.csv","legacy","Kafkaesque Koffka","3.2.6","add","0","l","NA","NA","","l","16661","NA","NA","39403","16661","2","1379","legacy","large","1024","2","48000","-16","experiment","9_7_add_true.jpg","1","odd","legacy","338248","NA","104917","NA","NA","3170","NA","3183","88255","338249","340611","45006","86219","3172","mousetracking operator preview effect","0","0","0","no","true","no","1680"
"negative","undefined","1","undefined","undefined","white","no","legacy","legacy","legacy","0","relative","undefined","undefined","92","NA","0","0","0","0","0","0","0","108","108","0","15","0","no","03/05/19 12:01:55","A simple template for the mouse-tracking paradigm","yes","Experiment-FT.osexp","C:\Users\Kristen\Documents\opPreviewExperiment-master\procedure","no","mono","no","24","no","black","no","yes","1050","legacy","92","15","C:/Users/Kristen/Documents/opPreviewExperiment-master/procedure/subject-1.csv","legacy","Kafkaesque Koffka","3.2.6","add","0","l","NA","NA","","l","16661","NA","NA","39403","16661","2","649","legacy","large","1024","2","48000","-16","experiment","6_8_add_true.jpg","1","odd","legacy","340631","NA","104917","NA","NA","3170","NA","3183","88255","340631","342414","45006","86219","3172","mousetracking operator preview effect","0","0","0","no","true","no","1680"
