"SOAcondition","acc","accuracy","average_response_time","avg_rt","background","bidi","canvas_backend","clock_backend","color_backend","compensation","coordinates","correct","correct_instruction1","count_block1_sequence","count_block2_sequence","count_block_1","count_block_2","count_breakScreen","count_experiment","count_finish","count_instruction1","count_instruction2","count_keyboard_script","count_logger","count_practiceBlock","count_practice_sequence","count_setup_script","custom_cursor","datetime","description","disable_garbage_collection","experiment_file","experiment_path","font_bold","font_family","font_italic","font_size","font_underline","foreground","form_clicks","fullscreen","height","keyboard_backend","live_row","live_row_practiceBlock","logfile","mouse_backend","opensesame_codename","opensesame_version","operation","repeat_cycle","response","response_breakScreen","response_finish","response_instruction1","response_instruction2","response_time","response_time_breakScreen","response_time_finish","response_time_instruction1","response_time_instruction2","round_decimals","rt","sampler_backend","size","sound_buf_size","sound_channels","sound_freq","sound_sample_size","start","stimulus","subject_nr","subject_parity","synth_backend","time_block1_sequence","time_block2_sequence","time_block_1","time_block_2","time_breakScreen","time_experiment","time_finish","time_instruction1","time_instruction2","time_keyboard_script","time_logger","time_practiceBlock","time_practice_sequence","time_setup_script","title","total_correct","total_response_time","total_responses","transparent_variables","truth","uniform_coordinates","width"
"negative","undefined","0","undefined","undefined","white","no","legacy","legacy","legacy","0","relative","undefined","undefined","NA","NA","0","0","0","0","0","0","0","0","0","0","0","0","no","04/08/19 09:29:34","A simple template for the mouse-tracking paradigm","yes","Experiment-FT.osexp","C:\Users\Kristen\Documents\opPreviewExperiment-master\procedure","no","mono","no","24","no","black","no","yes","1050","legacy","0","0","C:/Users/Kristen/Documents/opPreviewExperiment-master/procedure/subject-14.csv","legacy","Kafkaesque Koffka","3.2.6","add","0","l","NA","NA","l","NA","23402","NA","NA","23402","NA","2","5511","legacy","NA","1024","2","48000","-16","experiment","1_4_add_F.jpg","14","even","legacy","NA","NA","NA","NA","NA","1941","NA","1954","NA","25359","32983","25357","25359","1943","mousetracking operator preview effect","0","0","0","no","false","no","1680"
"neutral","undefined","0","undefined","undefined","white","no","legacy","legacy","legacy","0","relative","undefined","undefined","NA","NA","0","0","0","0","0","0","0","1","1","0","1","0","no","04/08/19 09:29:34","A simple template for the mouse-tracking paradigm","yes","Experiment-FT.osexp","C:\Users\Kristen\Documents\opPreviewExperiment-master\procedure","no","mono","no","24","no","black","no","yes","1050","legacy","1","1","C:/Users/Kristen/Documents/opPreviewExperiment-master/procedure/subject-14.csv","legacy","Kafkaesque Koffka","3.2.6","mult","0","a","NA","NA","l","NA","23402","NA","NA","23402","NA","2","2010","legacy","NA","1024","2","48000","-16","experiment","0_3_mult_T.jpg","14","even","legacy","NA","NA","NA","NA","NA","1941","NA","1954","NA","33008","36968","25357","33008","1943","mousetracking operator preview effect","0","0","0","no","true","no","1680"
"neutral","undefined","1","undefined","undefined","white","no","legacy","legacy","legacy","0","relative","undefined","undefined","NA","NA","0","0","0","0","0","0","0","2","2","0","2","0","no","04/08/19 09:29:34","A simple template for the mouse-tracking paradigm","yes","Experiment-FT.osexp","C:\Users\Kristen\Documents\opPreviewExperiment-master\procedure","no","mono","no","24","no","black","no","yes","1050","legacy","2","2","C:/Users/Kristen/Documents/opPreviewExperiment-master/procedure/subject-14.csv","legacy","Kafkaesque Koffka","3.2.6","mult","0","a","NA","NA","l","NA","23402","NA","NA","23402","NA","2","3493","legacy","NA","1024","2","48000","-16","experiment","1_4_mult_F.jpg","14","even","legacy","NA","NA","NA","NA","NA","1941","NA","1954","NA","36989","41430","25357","36989","1943","mousetracking operator preview effect","0","0","0","no","false","no","1680"
"negative","undefined","1","undefined","undefined","white","no","legacy","legacy","legacy","0","relative","undefined","undefined","NA","NA","0","0","0","0","0","0","0","3","3","0","3","0","no","04/08/19 09:29:34","A simple template for the mouse-tracking paradigm","yes","Experiment-FT.osexp","C:\Users\Kristen\Documents\opPreviewExperiment-master\procedure","no","mono","no","24","no","black","no","yes","1050","legacy","3","3","C:/Users/Kristen/Documents/opPreviewExperiment-master/procedure/subject-14.csv","legacy","Kafkaesque Koffka","3.2.6","mult","0","a","NA","NA","l","NA","23402","NA","NA","23402","NA","2","1168","legacy","NA","1024","2","48000","-16","experiment","1_4_mult_F.jpg","14","even","legacy","NA","NA","NA","NA","NA","1941","NA","1954","NA","41452","43731","25357","41452","1943","mousetracking operator preview effect","0","0","0","no","false","no","1680"
"neutral","undefined","1","undefined","undefined","white","no","legacy","legacy","legacy","0","relative","undefined","undefined","NA","NA","0","0","0","0","0","0","0","4","4","0","4","0","no","04/08/19 09:29:34","A simple template for the mouse-tracking paradigm","yes","Experiment-FT.osexp","C:\Users\Kristen\Documents\opPreviewExperiment-master\procedure","no","mono","no","24","no","black","no","yes","1050","legacy","4","4","C:/Users/Kristen/Documents/opPreviewExperiment-master/procedure/subject-14.csv","legacy","Kafkaesque Koffka","3.2.6","mult","0","a","NA","NA","l","NA","23402","NA","NA","23402","NA","2","1516","legacy","NA","1024","2","48000","-16","experiment","0_3_mult_F.jpg","14","even","legacy","NA","NA","NA","NA","NA","1941","NA","1954","NA","43757","46243","25357","43757","1943","mousetracking operator preview effect","0","0","0","no","false","no","1680"
"neutral","undefined","1","undefined","undefined","white","no","legacy","legacy","legacy","0","relative","undefined","undefined","NA","NA","0","0","0","0","0","0","0","5","5","0","5","0","no","04/08/19 09:29:34","A simple template for the mouse-tracking paradigm","yes","Experiment-FT.osexp","C:\Users\Kristen\Documents\opPreviewExperiment-master\procedure","no","mono","no","24","no","black","no","yes","1050","legacy","5","5","C:/Users/Kristen/Documents/opPreviewExperiment-master/procedure/subject-14.csv","legacy","Kafkaesque Koffka","3.2.6","add","0","a","NA","NA","l","NA","23402","NA","NA","23402","NA","2","2079","legacy","NA","1024","2","48000","-16","experiment","1_4_add_F.jpg","14","even","legacy","NA","NA","NA","NA","NA","1941","NA","1954","NA","46264","49320","25357","46264","1943","mousetracking operator preview effect","0","0","0","no","false","no","1680"
"negative","undefined","0","undefined","undefined","white","no","legacy","legacy","legacy","0","relative","undefined","undefined","NA","NA","0","0","0","0","0","0","0","6","6","0","6","0","no","04/08/19 09:29:34","A simple template for the mouse-tracking paradigm","yes","Experiment-FT.osexp","C:\Users\Kristen\Documents\opPreviewExperiment-master\procedure","no","mono","no","24","no","black","no","yes","1050","legacy","6","6","C:/Users/Kristen/Documents/opPreviewExperiment-master/procedure/subject-14.csv","legacy","Kafkaesque Koffka","3.2.6","mult","0","a","NA","NA","l","NA","23402","NA","NA","23402","NA","2","675","legacy","NA","1024","2","48000","-16","experiment","0_3_mult_T.jpg","14","even","legacy","NA","NA","NA","NA","NA","1941","NA","1954","NA","49350","52185","25357","49350","1943","mousetracking operator preview effect","0","0","0","no","true","no","1680"
"neutral","undefined","1","undefined","undefined","white","no","legacy","legacy","legacy","0","relative","undefined","undefined","NA","NA","0","0","0","0","0","0","0","7","7","0","7","0","no","04/08/19 09:29:34","A simple template for the mouse-tracking paradigm","yes","Experiment-FT.osexp","C:\Users\Kristen\Documents\opPreviewExperiment-master\procedure","no","mono","no","24","no","black","no","yes","1050","legacy","7","7","C:/Users/Kristen/Documents/opPreviewExperiment-master/procedure/subject-14.csv","legacy","Kafkaesque Koffka","3.2.6","mult","0","l","NA","NA","l","NA","23402","NA","NA","23402","NA","2","915","legacy","NA","1024","2","48000","-16","experiment","1_4_mult_T.jpg","14","even","legacy","NA","NA","NA","NA","NA","1941","NA","1954","NA","52224","54093","25357","52224","1943","mousetracking operator preview effect","0","0","0","no","true","no","1680"
"negative","undefined","1","undefined","undefined","white","no","legacy","legacy","legacy","0","relative","undefined","undefined","NA","NA","0","0","0","0","0","0","0","8","8","0","8","0","no","04/08/19 09:29:34","A simple template for the mouse-tracking paradigm","yes","Experiment-FT.osexp","C:\Users\Kristen\Documents\opPreviewExperiment-master\procedure","no","mono","no","24","no","black","no","yes","1050","legacy","8","8","C:/Users/Kristen/Documents/opPreviewExperiment-master/procedure/subject-14.csv","legacy","Kafkaesque Koffka","3.2.6","mult","0","a","NA","NA","l","NA","23402","NA","NA","23402","NA","2","689","legacy","NA","1024","2","48000","-16","experiment","0_3_mult_F.jpg","14","even","legacy","NA","NA","NA","NA","NA","1941","NA","1954","NA","54117","55942","25357","54117","1943","mousetracking operator preview effect","0","0","0","no","false","no","1680"
"neutral","undefined","1","undefined","undefined","white","no","legacy","legacy","legacy","0","relative","undefined","undefined","NA","NA","0","0","0","0","0","0","0","9","9","0","9","0","no","04/08/19 09:29:34","A simple template for the mouse-tracking paradigm","yes","Experiment-FT.osexp","C:\Users\Kristen\Documents\opPreviewExperiment-master\procedure","no","mono","no","24","no","black","no","yes","1050","legacy","9","9","C:/Users/Kristen/Documents/opPreviewExperiment-master/procedure/subject-14.csv","legacy","Kafkaesque Koffka","3.2.6","add","0","a","NA","NA","l","NA","23402","NA","NA","23402","NA","2","848","legacy","NA","1024","2","48000","-16","experiment","0_3_add_F.jpg","14","even","legacy","NA","NA","NA","NA","NA","1941","NA","1954","NA","55967","57786","25357","55967","1943","mousetracking operator preview effect","0","0","0","no","false","no","1680"
"negative","undefined","1","undefined","undefined","white","no","legacy","legacy","legacy","0","relative","undefined","undefined","NA","NA","0","0","0","0","0","0","0","10","10","0","10","0","no","04/08/19 09:29:34","A simple template for the mouse-tracking paradigm","yes","Experiment-FT.osexp","C:\Users\Kristen\Documents\opPreviewExperiment-master\procedure","no","mono","no","24","no","black","no","yes","1050","legacy","10","10","C:/Users/Kristen/Documents/opPreviewExperiment-master/procedure/subject-14.csv","legacy","Kafkaesque Koffka","3.2.6","mult","0","l","NA","NA","l","NA","23402","NA","NA","23402","NA","2","728","legacy","NA","1024","2","48000","-16","experiment","1_4_mult_T.jpg","14","even","legacy","NA","NA","NA","NA","NA","1941","NA","1954","NA","57806","59679","25357","57806","1943","mousetracking operator preview effect","0","0","0","no","true","no","1680"
"neutral","undefined","1","undefined","undefined","white","no","legacy","legacy","legacy","0","relative","undefined","undefined","NA","NA","0","0","0","0","0","0","0","11","11","0","11","0","no","04/08/19 09:29:34","A simple template for the mouse-tracking paradigm","yes","Experiment-FT.osexp","C:\Users\Kristen\Documents\opPreviewExperiment-master\procedure","no","mono","no","24","no","black","no","yes","1050","legacy","11","11","C:/Users/Kristen/Documents/opPreviewExperiment-master/procedure/subject-14.csv","legacy","Kafkaesque Koffka","3.2.6","add","0","l","NA","NA","l","NA","23402","NA","NA","23402","NA","2","1032","legacy","NA","1024","2","48000","-16","experiment","1_4_add_T.jpg","14","even","legacy","NA","NA","NA","NA","NA","1941","NA","1954","NA","59706","61714","25357","59706","1943","mousetracking operator preview effect","0","0","0","no","true","no","1680"
"negative","undefined","1","undefined","undefined","white","no","legacy","legacy","legacy","0","relative","undefined","undefined","NA","NA","0","0","0","0","0","0","0","12","12","0","12","0","no","04/08/19 09:29:34","A simple template for the mouse-tracking paradigm","yes","Experiment-FT.osexp","C:\Users\Kristen\Documents\opPreviewExperiment-master\procedure","no","mono","no","24","no","black","no","yes","1050","legacy","12","12","C:/Users/Kristen/Documents/opPreviewExperiment-master/procedure/subject-14.csv","legacy","Kafkaesque Koffka","3.2.6","add","0","l","NA","NA","l","NA","23402","NA","NA","23402","NA","2","847","legacy","NA","1024","2","48000","-16","experiment","0_3_add_T.jpg","14","even","legacy","NA","NA","NA","NA","NA","1941","NA","1954","NA","61741","63735","25357","61741","1943","mousetracking operator preview effect","0","0","0","no","true","no","1680"
"neutral","undefined","1","undefined","undefined","white","no","legacy","legacy","legacy","0","relative","undefined","undefined","NA","NA","0","0","0","0","0","0","0","13","13","0","13","0","no","04/08/19 09:29:34","A simple template for the mouse-tracking paradigm","yes","Experiment-FT.osexp","C:\Users\Kristen\Documents\opPreviewExperiment-master\procedure","no","mono","no","24","no","black","no","yes","1050","legacy","13","13","C:/Users/Kristen/Documents/opPreviewExperiment-master/procedure/subject-14.csv","legacy","Kafkaesque Koffka","3.2.6","add","0","l","NA","NA","l","NA","23402","NA","NA","23402","NA","2","586","legacy","NA","1024","2","48000","-16","experiment","0_3_add_T.jpg","14","even","legacy","NA","NA","NA","NA","NA","1941","NA","1954","NA","63765","65329","25357","63765","1943","mousetracking operator preview effect","0","0","0","no","true","no","1680"
"negative","undefined","1","undefined","undefined","white","no","legacy","legacy","legacy","0","relative","undefined","undefined","NA","NA","0","0","0","0","0","0","0","14","14","0","14","0","no","04/08/19 09:29:34","A simple template for the mouse-tracking paradigm","yes","Experiment-FT.osexp","C:\Users\Kristen\Documents\opPreviewExperiment-master\procedure","no","mono","no","24","no","black","no","yes","1050","legacy","14","14","C:/Users/Kristen/Documents/opPreviewExperiment-master/procedure/subject-14.csv","legacy","Kafkaesque Koffka","3.2.6","add","0","l","NA","NA","l","NA","23402","NA","NA","23402","NA","2","668","legacy","NA","1024","2","48000","-16","experiment","1_4_add_T.jpg","14","even","legacy","NA","NA","NA","NA","NA","1941","NA","1954","NA","65350","67171","25357","65350","1943","mousetracking operator preview effect","0","0","0","no","true","no","1680"
"negative","undefined","1","undefined","undefined","white","no","legacy","legacy","legacy","0","relative","undefined","undefined","NA","NA","0","0","0","0","0","0","0","15","15","0","15","0","no","04/08/19 09:29:34","A simple template for the mouse-tracking paradigm","yes","Experiment-FT.osexp","C:\Users\Kristen\Documents\opPreviewExperiment-master\procedure","no","mono","no","24","no","black","no","yes","1050","legacy","15","15","C:/Users/Kristen/Documents/opPreviewExperiment-master/procedure/subject-14.csv","legacy","Kafkaesque Koffka","3.2.6","add","0","a","NA","NA","l","NA","23402","NA","NA","23402","NA","2","981","legacy","NA","1024","2","48000","-16","experiment","0_3_add_F.jpg","14","even","legacy","NA","NA","NA","NA","NA","1941","NA","1954","NA","67192","69319","25357","67192","1943","mousetracking operator preview effect","0","0","0","no","false","no","1680"
"negative","undefined","1","undefined","undefined","white","no","legacy","legacy","legacy","0","relative","undefined","undefined","0","NA","0","0","0","0","0","0","0","16","16","0","15","0","no","04/08/19 09:29:34","A simple template for the mouse-tracking paradigm","yes","Experiment-FT.osexp","C:\Users\Kristen\Documents\opPreviewExperiment-master\procedure","no","mono","no","24","no","black","no","yes","1050","legacy","0","15","C:/Users/Kristen/Documents/opPreviewExperiment-master/procedure/subject-14.csv","legacy","Kafkaesque Koffka","3.2.6","mult","0","l","NA","NA","l","l","13392","NA","NA","23402","13392","2","1798","legacy","large","1024","2","48000","-16","experiment","8_4_mult_true.jpg","14","even","legacy","82740","NA","82735","NA","NA","1941","NA","1954","69343","82740","85679","25357","67192","1943","mousetracking operator preview effect","0","0","0","no","true","no","1680"
"negative","undefined","1","undefined","undefined","white","no","legacy","legacy","legacy","0","relative","undefined","undefined","1","NA","0","0","0","0","0","0","0","17","17","0","15","0","no","04/08/19 09:29:34","A simple template for the mouse-tracking paradigm","yes","Experiment-FT.osexp","C:\Users\Kristen\Documents\opPreviewExperiment-master\procedure","no","mono","no","24","no","black","no","yes","1050","legacy","1","15","C:/Users/Kristen/Documents/opPreviewExperiment-master/procedure/subject-14.csv","legacy","Kafkaesque Koffka","3.2.6","mult","0","a","NA","NA","l","l","13392","NA","NA","23402","13392","2","1638","legacy","large","1024","2","48000","-16","experiment","9_7_mult_FNI.jpg","14","even","legacy","85706","NA","82735","NA","NA","1941","NA","1954","69343","85706","88490","25357","67192","1943","mousetracking operator preview effect","0","0","0","no","false","no","1680"
"negative","undefined","1","undefined","undefined","white","no","legacy","legacy","legacy","0","relative","undefined","undefined","2","NA","0","0","0","0","0","0","0","18","18","0","15","0","no","04/08/19 09:29:34","A simple template for the mouse-tracking paradigm","yes","Experiment-FT.osexp","C:\Users\Kristen\Documents\opPreviewExperiment-master\procedure","no","mono","no","24","no","black","no","yes","1050","legacy","2","15","C:/Users/Kristen/Documents/opPreviewExperiment-master/procedure/subject-14.csv","legacy","Kafkaesque Koffka","3.2.6","add","0","a","NA","NA","l","l","13392","NA","NA","23402","13392","2","1671","legacy","small","1024","2","48000","-16","experiment","5_3_add_FI.jpg","14","even","legacy","88515","NA","82735","NA","NA","1941","NA","1954","69343","88515","91334","25357","67192","1943","mousetracking operator preview effect","0","0","0","no","false","no","1680"
"neutral","undefined","1","undefined","undefined","white","no","legacy","legacy","legacy","0","relative","undefined","undefined","3","NA","0","0","0","0","0","0","0","19","19","0","15","0","no","04/08/19 09:29:34","A simple template for the mouse-tracking paradigm","yes","Experiment-FT.osexp","C:\Users\Kristen\Documents\opPreviewExperiment-master\procedure","no","mono","no","24","no","black","no","yes","1050","legacy","3","15","C:/Users/Kristen/Documents/opPreviewExperiment-master/procedure/subject-14.csv","legacy","Kafkaesque Koffka","3.2.6","mult","0","a","NA","NA","l","l","13392","NA","NA","23402","13392","2","1298","legacy","small","1024","2","48000","-16","experiment","3_6_mult_FI.jpg","14","even","legacy","91347","NA","82735","NA","NA","1941","NA","1954","69343","91347","93616","25357","67192","1943","mousetracking operator preview effect","0","0","0","no","false","no","1680"
"negative","undefined","1","undefined","undefined","white","no","legacy","legacy","legacy","0","relative","undefined","undefined","4","NA","0","0","0","0","0","0","0","20","20","0","15","0","no","04/08/19 09:29:34","A simple template for the mouse-tracking paradigm","yes","Experiment-FT.osexp","C:\Users\Kristen\Documents\opPreviewExperiment-master\procedure","no","mono","no","24","no","black","no","yes","1050","legacy","4","15","C:/Users/Kristen/Documents/opPreviewExperiment-master/procedure/subject-14.csv","legacy","Kafkaesque Koffka","3.2.6","mult","0","a","NA","NA","l","l","13392","NA","NA","23402","13392","2","1710","legacy","small","1024","2","48000","-16","experiment","2_7_mult_FI.jpg","14","even","legacy","93645","NA","82735","NA","NA","1941","NA","1954","69343","93645","96503","25357","67192","1943","mousetracking operator preview effect","0","0","0","no","false","no","1680"
"negative","undefined","1","undefined","undefined","white","no","legacy","legacy","legacy","0","relative","undefined","undefined","5","NA","0","0","0","0","0","0","0","21","21","0","15","0","no","04/08/19 09:29:34","A simple template for the mouse-tracking paradigm","yes","Experiment-FT.osexp","C:\Users\Kristen\Documents\opPreviewExperiment-master\procedure","no","mono","no","24","no","black","no","yes","1050","legacy","5","15","C:/Users/Kristen/Documents/opPreviewExperiment-master/procedure/subject-14.csv","legacy","Kafkaesque Koffka","3.2.6","add","0","l","NA","NA","l","l","13392","NA","NA","23402","13392","2","1031","legacy","small","1024","2","48000","-16","experiment","2_7_add_true.jpg","14","even","legacy","96516","NA","82735","NA","NA","1941","NA","1954","69343","96517","98691","25357","67192","1943","mousetracking operator preview effect","0","0","0","no","true","no","1680"
"neutral","undefined","1","undefined","undefined","white","no","legacy","legacy","legacy","0","relative","undefined","undefined","6","NA","0","0","0","0","0","0","0","22","22","0","15","0","no","04/08/19 09:29:34","A simple template for the mouse-tracking paradigm","yes","Experiment-FT.osexp","C:\Users\Kristen\Documents\opPreviewExperiment-master\procedure","no","mono","no","24","no","black","no","yes","1050","legacy","6","15","C:/Users/Kristen/Documents/opPreviewExperiment-master/procedure/subject-14.csv","legacy","Kafkaesque Koffka","3.2.6","mult","0","l","NA","NA","l","l","13392","NA","NA","23402","13392","2","1148","legacy","large","1024","2","48000","-16","experiment","9_7_mult_true.jpg","14","even","legacy","98714","NA","82735","NA","NA","1941","NA","1954","69343","98714","100836","25357","67192","1943","mousetracking operator preview effect","0","0","0","no","true","no","1680"
"negative","undefined","1","undefined","undefined","white","no","legacy","legacy","legacy","0","relative","undefined","undefined","7","NA","0","0","0","0","0","0","0","23","23","0","15","0","no","04/08/19 09:29:34","A simple template for the mouse-tracking paradigm","yes","Experiment-FT.osexp","C:\Users\Kristen\Documents\opPreviewExperiment-master\procedure","no","mono","no","24","no","black","no","yes","1050","legacy","7","15","C:/Users/Kristen/Documents/opPreviewExperiment-master/procedure/subject-14.csv","legacy","Kafkaesque Koffka","3.2.6","add","0","a","NA","NA","l","l","13392","NA","NA","23402","13392","2","912","legacy","small","1024","2","48000","-16","experiment","2_7_add_FI.jpg","14","even","legacy","100864","NA","82735","NA","NA","1941","NA","1954","69343","100864","102920","25357","67192","1943","mousetracking operator preview effect","0","0","0","no","false","no","1680"
"negative","undefined","1","undefined","undefined","white","no","legacy","legacy","legacy","0","relative","undefined","undefined","8","NA","0","0","0","0","0","0","0","24","24","0","15","0","no","04/08/19 09:29:34","A simple template for the mouse-tracking paradigm","yes","Experiment-FT.osexp","C:\Users\Kristen\Documents\opPreviewExperiment-master\procedure","no","mono","no","24","no","black","no","yes","1050","legacy","8","15","C:/Users/Kristen/Documents/opPreviewExperiment-master/procedure/subject-14.csv","legacy","Kafkaesque Koffka","3.2.6","add","0","l","NA","NA","l","l","13392","NA","NA","23402","13392","2","979","legacy","small","1024","2","48000","-16","experiment","8_2_add_true.jpg","14","even","legacy","102951","NA","82735","NA","NA","1941","NA","1954","69343","102951","105063","25357","67192","1943","mousetracking operator preview effect","0","0","0","no","true","no","1680"
"neutral","undefined","1","undefined","undefined","white","no","legacy","legacy","legacy","0","relative","undefined","undefined","9","NA","0","0","0","0","0","0","0","25","25","0","15","0","no","04/08/19 09:29:34","A simple template for the mouse-tracking paradigm","yes","Experiment-FT.osexp","C:\Users\Kristen\Documents\opPreviewExperiment-master\procedure","no","mono","no","24","no","black","no","yes","1050","legacy","9","15","C:/Users/Kristen/Documents/opPreviewExperiment-master/procedure/subject-14.csv","legacy","Kafkaesque Koffka","3.2.6","add","0","a","NA","NA","l","l","13392","NA","NA","23402","13392","2","2267","legacy","large","1024","2","48000","-16","experiment","9_7_add_FNI.jpg","14","even","legacy","105084","NA","82735","NA","NA","1941","NA","1954","69343","105084","108313","25357","67192","1943","mousetracking operator preview effect","0","0","0","no","false","no","1680"
"neutral","undefined","1","undefined","undefined","white","no","legacy","legacy","legacy","0","relative","undefined","undefined","10","NA","0","0","0","0","0","0","0","26","26","0","15","0","no","04/08/19 09:29:34","A simple template for the mouse-tracking paradigm","yes","Experiment-FT.osexp","C:\Users\Kristen\Documents\opPreviewExperiment-master\procedure","no","mono","no","24","no","black","no","yes","1050","legacy","10","15","C:/Users/Kristen/Documents/opPreviewExperiment-master/procedure/subject-14.csv","legacy","Kafkaesque Koffka","3.2.6","mult","0","l","NA","NA","l","l","13392","NA","NA","23402","13392","2","756","legacy","small","1024","2","48000","-16","experiment","8_2_mult_true.jpg","14","even","legacy","108343","NA","82735","NA","NA","1941","NA","1954","69343","108343","110074","25357","67192","1943","mousetracking operator preview effect","0","0","0","no","true","no","1680"
"neutral","undefined","1","undefined","undefined","white","no","legacy","legacy","legacy","0","relative","undefined","undefined","11","NA","0","0","0","0","0","0","0","27","27","0","15","0","no","04/08/19 09:29:34","A simple template for the mouse-tracking paradigm","yes","Experiment-FT.osexp","C:\Users\Kristen\Documents\opPreviewExperiment-master\procedure","no","mono","no","24","no","black","no","yes","1050","legacy","11","15","C:/Users/Kristen/Documents/opPreviewExperiment-master/procedure/subject-14.csv","legacy","Kafkaesque Koffka","3.2.6","add","0","a","NA","NA","l","l","13392","NA","NA","23402","13392","2","974","legacy","large","1024","2","48000","-16","experiment","9_7_add_FI.jpg","14","even","legacy","110103","NA","82735","NA","NA","1941","NA","1954","69343","110103","112051","25357","67192","1943","mousetracking operator preview effect","0","0","0","no","false","no","1680"
"negative","undefined","1","undefined","undefined","white","no","legacy","legacy","legacy","0","relative","undefined","undefined","12","NA","0","0","0","0","0","0","0","28","28","0","15","0","no","04/08/19 09:29:34","A simple template for the mouse-tracking paradigm","yes","Experiment-FT.osexp","C:\Users\Kristen\Documents\opPreviewExperiment-master\procedure","no","mono","no","24","no","black","no","yes","1050","legacy","12","15","C:/Users/Kristen/Documents/opPreviewExperiment-master/procedure/subject-14.csv","legacy","Kafkaesque Koffka","3.2.6","mult","0","l","NA","NA","l","l","13392","NA","NA","23402","13392","2","724","legacy","small","1024","2","48000","-16","experiment","8_2_mult_true.jpg","14","even","legacy","112072","NA","82735","NA","NA","1941","NA","1954","69343","112072","113928","25357","67192","1943","mousetracking operator preview effect","0","0","0","no","true","no","1680"
"neutral","undefined","1","undefined","undefined","white","no","legacy","legacy","legacy","0","relative","undefined","undefined","13","NA","0","0","0","0","0","0","0","29","29","0","15","0","no","04/08/19 09:29:34","A simple template for the mouse-tracking paradigm","yes","Experiment-FT.osexp","C:\Users\Kristen\Documents\opPreviewExperiment-master\procedure","no","mono","no","24","no","black","no","yes","1050","legacy","13","15","C:/Users/Kristen/Documents/opPreviewExperiment-master/procedure/subject-14.csv","legacy","Kafkaesque Koffka","3.2.6","add","0","a","NA","NA","l","l","13392","NA","NA","23402","13392","2","871","legacy","large","1024","2","48000","-16","experiment","8_4_add_FI.jpg","14","even","legacy","113955","NA","82735","NA","NA","1941","NA","1954","69343","113955","115800","25357","67192","1943","mousetracking operator preview effect","0","0","0","no","false","no","1680"
"neutral","undefined","1","undefined","undefined","white","no","legacy","legacy","legacy","0","relative","undefined","undefined","14","NA","0","0","0","0","0","0","0","30","30","0","15","0","no","04/08/19 09:29:34","A simple template for the mouse-tracking paradigm","yes","Experiment-FT.osexp","C:\Users\Kristen\Documents\opPreviewExperiment-master\procedure","no","mono","no","24","no","black","no","yes","1050","legacy","14","15","C:/Users/Kristen/Documents/opPreviewExperiment-master/procedure/subject-14.csv","legacy","Kafkaesque Koffka","3.2.6","mult","0","l","NA","NA","l","l","13392","NA","NA","23402","13392","2","967","legacy","large","1024","2","48000","-16","experiment","4_9_mult_true.jpg","14","even","legacy","115813","NA","82735","NA","NA","1941","NA","1954","69343","115813","117756","25357","67192","1943","mousetracking operator preview effect","0","0","0","no","true","no","1680"
"neutral","undefined","1","undefined","undefined","white","no","legacy","legacy","legacy","0","relative","undefined","undefined","15","NA","0","0","0","0","0","0","0","31","31","0","15","0","no","04/08/19 09:29:34","A simple template for the mouse-tracking paradigm","yes","Experiment-FT.osexp","C:\Users\Kristen\Documents\opPreviewExperiment-master\procedure","no","mono","no","24","no","black","no","yes","1050","legacy","15","15","C:/Users/Kristen/Documents/opPreviewExperiment-master/procedure/subject-14.csv","legacy","Kafkaesque Koffka","3.2.6","add","0","a","NA","NA","l","l","13392","NA","NA","23402","13392","2","867","legacy","small","1024","2","48000","-16","experiment","8_2_add_FI.jpg","14","even","legacy","117780","NA","82735","NA","NA","1941","NA","1954","69343","117780","119621","25357","67192","1943","mousetracking operator preview effect","0","0","0","no","false","no","1680"
"neutral","undefined","1","undefined","undefined","white","no","legacy","legacy","legacy","0","relative","undefined","undefined","16","NA","0","0","0","0","0","0","0","32","32","0","15","0","no","04/08/19 09:29:34","A simple template for the mouse-tracking paradigm","yes","Experiment-FT.osexp","C:\Users\Kristen\Documents\opPreviewExperiment-master\procedure","no","mono","no","24","no","black","no","yes","1050","legacy","16","15","C:/Users/Kristen/Documents/opPreviewExperiment-master/procedure/subject-14.csv","legacy","Kafkaesque Koffka","3.2.6","mult","0","l","NA","NA","l","l","13392","NA","NA","23402","13392","2","773","legacy","large","1024","2","48000","-16","experiment","9_7_mult_true.jpg","14","even","legacy","119635","NA","82735","NA","NA","1941","NA","1954","69343","119635","121385","25357","67192","1943","mousetracking operator preview effect","0","0","0","no","true","no","1680"
"negative","undefined","1","undefined","undefined","white","no","legacy","legacy","legacy","0","relative","undefined","undefined","17","NA","0","0","0","0","0","0","0","33","33","0","15","0","no","04/08/19 09:29:34","A simple template for the mouse-tracking paradigm","yes","Experiment-FT.osexp","C:\Users\Kristen\Documents\opPreviewExperiment-master\procedure","no","mono","no","24","no","black","no","yes","1050","legacy","17","15","C:/Users/Kristen/Documents/opPreviewExperiment-master/procedure/subject-14.csv","legacy","Kafkaesque Koffka","3.2.6","mult","0","a","NA","NA","l","l","13392","NA","NA","23402","13392","2","785","legacy","large","1024","2","48000","-16","experiment","6_8_mult_FI.jpg","14","even","legacy","121399","NA","82735","NA","NA","1941","NA","1954","69343","121399","123318","25357","67192","1943","mousetracking operator preview effect","0","0","0","no","false","no","1680"
"neutral","undefined","1","undefined","undefined","white","no","legacy","legacy","legacy","0","relative","undefined","undefined","18","NA","0","0","0","0","0","0","0","34","34","0","15","0","no","04/08/19 09:29:34","A simple template for the mouse-tracking paradigm","yes","Experiment-FT.osexp","C:\Users\Kristen\Documents\opPreviewExperiment-master\procedure","no","mono","no","24","no","black","no","yes","1050","legacy","18","15","C:/Users/Kristen/Documents/opPreviewExperiment-master/procedure/subject-14.csv","legacy","Kafkaesque Koffka","3.2.6","mult","0","a","NA","NA","l","l","13392","NA","NA","23402","13392","2","865","legacy","large","1024","2","48000","-16","experiment","9_7_mult_FNI.jpg","14","even","legacy","123339","NA","82735","NA","NA","1941","NA","1954","69343","123339","125185","25357","67192","1943","mousetracking operator preview effect","0","0","0","no","false","no","1680"
"negative","undefined","1","undefined","undefined","white","no","legacy","legacy","legacy","0","relative","undefined","undefined","19","NA","0","0","0","0","0","0","0","35","35","0","15","0","no","04/08/19 09:29:34","A simple template for the mouse-tracking paradigm","yes","Experiment-FT.osexp","C:\Users\Kristen\Documents\opPreviewExperiment-master\procedure","no","mono","no","24","no","black","no","yes","1050","legacy","19","15","C:/Users/Kristen/Documents/opPreviewExperiment-master/procedure/subject-14.csv","legacy","Kafkaesque Koffka","3.2.6","mult","0","l","NA","NA","l","l","13392","NA","NA","23402","13392","2","1088","legacy","small","1024","2","48000","-16","experiment","3_6_mult_true.jpg","14","even","legacy","125212","NA","82735","NA","NA","1941","NA","1954","69343","125212","127450","25357","67192","1943","mousetracking operator preview effect","0","0","0","no","true","no","1680"
"negative","undefined","1","undefined","undefined","white","no","legacy","legacy","legacy","0","relative","undefined","undefined","20","NA","0","0","0","0","0","0","0","36","36","0","15","0","no","04/08/19 09:29:34","A simple template for the mouse-tracking paradigm","yes","Experiment-FT.osexp","C:\Users\Kristen\Documents\opPreviewExperiment-master\procedure","no","mono","no","24","no","black","no","yes","1050","legacy","20","15","C:/Users/Kristen/Documents/opPreviewExperiment-master/procedure/subject-14.csv","legacy","Kafkaesque Koffka","3.2.6","add","0","a","NA","NA","l","l","13392","NA","NA","23402","13392","2","769","legacy","small","1024","2","48000","-16","experiment","8_2_add_FI.jpg","14","even","legacy","127480","NA","82735","NA","NA","1941","NA","1954","69343","127480","129396","25357","67192","1943","mousetracking operator preview effect","0","0","0","no","false","no","1680"
"negative","undefined","1","undefined","undefined","white","no","legacy","legacy","legacy","0","relative","undefined","undefined","21","NA","0","0","0","0","0","0","0","37","37","0","15","0","no","04/08/19 09:29:34","A simple template for the mouse-tracking paradigm","yes","Experiment-FT.osexp","C:\Users\Kristen\Documents\opPreviewExperiment-master\procedure","no","mono","no","24","no","black","no","yes","1050","legacy","21","15","C:/Users/Kristen/Documents/opPreviewExperiment-master/procedure/subject-14.csv","legacy","Kafkaesque Koffka","3.2.6","add","0","a","NA","NA","l","l","13392","NA","NA","23402","13392","2","997","legacy","large","1024","2","48000","-16","experiment","9_7_add_FNI.jpg","14","even","legacy","129416","NA","82735","NA","NA","1941","NA","1954","69343","129416","131562","25357","67192","1943","mousetracking operator preview effect","0","0","0","no","false","no","1680"
"neutral","undefined","1","undefined","undefined","white","no","legacy","legacy","legacy","0","relative","undefined","undefined","22","NA","0","0","0","0","0","0","0","38","38","0","15","0","no","04/08/19 09:29:34","A simple template for the mouse-tracking paradigm","yes","Experiment-FT.osexp","C:\Users\Kristen\Documents\opPreviewExperiment-master\procedure","no","mono","no","24","no","black","no","yes","1050","legacy","22","15","C:/Users/Kristen/Documents/opPreviewExperiment-master/procedure/subject-14.csv","legacy","Kafkaesque Koffka","3.2.6","add","0","a","NA","NA","l","l","13392","NA","NA","23402","13392","2","1078","legacy","small","1024","2","48000","-16","experiment","2_7_add_FNI.jpg","14","even","legacy","131587","NA","82735","NA","NA","1941","NA","1954","69343","131587","133645","25357","67192","1943","mousetracking operator preview effect","0","0","0","no","false","no","1680"
"neutral","undefined","1","undefined","undefined","white","no","legacy","legacy","legacy","0","relative","undefined","undefined","23","NA","0","0","0","0","0","0","0","39","39","0","15","0","no","04/08/19 09:29:34","A simple template for the mouse-tracking paradigm","yes","Experiment-FT.osexp","C:\Users\Kristen\Documents\opPreviewExperiment-master\procedure","no","mono","no","24","no","black","no","yes","1050","legacy","23","15","C:/Users/Kristen/Documents/opPreviewExperiment-master/procedure/subject-14.csv","legacy","Kafkaesque Koffka","3.2.6","add","0","l","NA","NA","l","l","13392","NA","NA","23402","13392","2","783","legacy","small","1024","2","48000","-16","experiment","5_3_add_true.jpg","14","even","legacy","133665","NA","82735","NA","NA","1941","NA","1954","69343","133665","135423","25357","67192","1943","mousetracking operator preview effect","0","0","0","no","true","no","1680"
"neutral","undefined","1","undefined","undefined","white","no","legacy","legacy","legacy","0","relative","undefined","undefined","24","NA","0","0","0","0","0","0","0","40","40","0","15","0","no","04/08/19 09:29:34","A simple template for the mouse-tracking paradigm","yes","Experiment-FT.osexp","C:\Users\Kristen\Documents\opPreviewExperiment-master\procedure","no","mono","no","24","no","black","no","yes","1050","legacy","24","15","C:/Users/Kristen/Documents/opPreviewExperiment-master/procedure/subject-14.csv","legacy","Kafkaesque Koffka","3.2.6","add","0","a","NA","NA","l","l","13392","NA","NA","23402","13392","2","868","legacy","small","1024","2","48000","-16","experiment","3_6_add_FNI.jpg","14","even","legacy","135454","NA","82735","NA","NA","1941","NA","1954","69343","135454","137300","25357","67192","1943","mousetracking operator preview effect","0","0","0","no","false","no","1680"
"negative","undefined","1","undefined","undefined","white","no","legacy","legacy","legacy","0","relative","undefined","undefined","25","NA","0","0","0","0","0","0","0","41","41","0","15","0","no","04/08/19 09:29:34","A simple template for the mouse-tracking paradigm","yes","Experiment-FT.osexp","C:\Users\Kristen\Documents\opPreviewExperiment-master\procedure","no","mono","no","24","no","black","no","yes","1050","legacy","25","15","C:/Users/Kristen/Documents/opPreviewExperiment-master/procedure/subject-14.csv","legacy","Kafkaesque Koffka","3.2.6","add","0","l","NA","NA","l","l","13392","NA","NA","23402","13392","2","1746","legacy","large","1024","2","48000","-16","experiment","6_8_add_true.jpg","14","even","legacy","137329","NA","82735","NA","NA","1941","NA","1954","69343","137329","140215","25357","67192","1943","mousetracking operator preview effect","0","0","0","no","true","no","1680"
"neutral","undefined","1","undefined","undefined","white","no","legacy","legacy","legacy","0","relative","undefined","undefined","26","NA","0","0","0","0","0","0","0","42","42","0","15","0","no","04/08/19 09:29:34","A simple template for the mouse-tracking paradigm","yes","Experiment-FT.osexp","C:\Users\Kristen\Documents\opPreviewExperiment-master\procedure","no","mono","no","24","no","black","no","yes","1050","legacy","26","15","C:/Users/Kristen/Documents/opPreviewExperiment-master/procedure/subject-14.csv","legacy","Kafkaesque Koffka","3.2.6","mult","0","a","NA","NA","l","l","13392","NA","NA","23402","13392","2","833","legacy","small","1024","2","48000","-16","experiment","8_2_mult_FNI.jpg","14","even","legacy","140236","NA","82735","NA","NA","1941","NA","1954","69343","140236","142048","25357","67192","1943","mousetracking operator preview effect","0","0","0","no","false","no","1680"
"neutral","undefined","1","undefined","undefined","white","no","legacy","legacy","legacy","0","relative","undefined","undefined","27","NA","0","0","0","0","0","0","0","43","43","0","15","0","no","04/08/19 09:29:34","A simple template for the mouse-tracking paradigm","yes","Experiment-FT.osexp","C:\Users\Kristen\Documents\opPreviewExperiment-master\procedure","no","mono","no","24","no","black","no","yes","1050","legacy","27","15","C:/Users/Kristen/Documents/opPreviewExperiment-master/procedure/subject-14.csv","legacy","Kafkaesque Koffka","3.2.6","mult","0","a","NA","NA","l","l","13392","NA","NA","23402","13392","2","1123","legacy","large","1024","2","48000","-16","experiment","8_4_mult_FI.jpg","14","even","legacy","142073","NA","82735","NA","NA","1941","NA","1954","69343","142073","144171","25357","67192","1943","mousetracking operator preview effect","0","0","0","no","false","no","1680"
"negative","undefined","1","undefined","undefined","white","no","legacy","legacy","legacy","0","relative","undefined","undefined","28","NA","0","0","0","0","0","0","0","44","44","0","15","0","no","04/08/19 09:29:34","A simple template for the mouse-tracking paradigm","yes","Experiment-FT.osexp","C:\Users\Kristen\Documents\opPreviewExperiment-master\procedure","no","mono","no","24","no","black","no","yes","1050","legacy","28","15","C:/Users/Kristen/Documents/opPreviewExperiment-master/procedure/subject-14.csv","legacy","Kafkaesque Koffka","3.2.6","mult","0","l","NA","NA","l","l","13392","NA","NA","23402","13392","2","747","legacy","large","1024","2","48000","-16","experiment","9_7_mult_true.jpg","14","even","legacy","144193","NA","82735","NA","NA","1941","NA","1954","69343","144193","146090","25357","67192","1943","mousetracking operator preview effect","0","0","0","no","true","no","1680"
"neutral","undefined","1","undefined","undefined","white","no","legacy","legacy","legacy","0","relative","undefined","undefined","29","NA","0","0","0","0","0","0","0","45","45","0","15","0","no","04/08/19 09:29:34","A simple template for the mouse-tracking paradigm","yes","Experiment-FT.osexp","C:\Users\Kristen\Documents\opPreviewExperiment-master\procedure","no","mono","no","24","no","black","no","yes","1050","legacy","29","15","C:/Users/Kristen/Documents/opPreviewExperiment-master/procedure/subject-14.csv","legacy","Kafkaesque Koffka","3.2.6","add","0","l","NA","NA","l","l","13392","NA","NA","23402","13392","2","922","legacy","small","1024","2","48000","-16","experiment","3_6_add_true.jpg","14","even","legacy","146179","NA","82735","NA","NA","1941","NA","1954","69343","146179","148075","25357","67192","1943","mousetracking operator preview effect","0","0","0","no","true","no","1680"
"neutral","undefined","0","undefined","undefined","white","no","legacy","legacy","legacy","0","relative","undefined","undefined","30","NA","0","0","0","0","0","0","0","46","46","0","15","0","no","04/08/19 09:29:34","A simple template for the mouse-tracking paradigm","yes","Experiment-FT.osexp","C:\Users\Kristen\Documents\opPreviewExperiment-master\procedure","no","mono","no","24","no","black","no","yes","1050","legacy","30","15","C:/Users/Kristen/Documents/opPreviewExperiment-master/procedure/subject-14.csv","legacy","Kafkaesque Koffka","3.2.6","mult","0","l","NA","NA","l","l","13392","NA","NA","23402","13392","2","777","legacy","large","1024","2","48000","-16","experiment","4_9_mult_FNI.jpg","14","even","legacy","148089","NA","82735","NA","NA","1941","NA","1954","69343","148089","150860","25357","67192","1943","mousetracking operator preview effect","0","0","0","no","false","no","1680"
"negative","undefined","1","undefined","undefined","white","no","legacy","legacy","legacy","0","relative","undefined","undefined","31","NA","0","0","0","0","0","0","0","47","47","0","15","0","no","04/08/19 09:29:34","A simple template for the mouse-tracking paradigm","yes","Experiment-FT.osexp","C:\Users\Kristen\Documents\opPreviewExperiment-master\procedure","no","mono","no","24","no","black","no","yes","1050","legacy","31","15","C:/Users/Kristen/Documents/opPreviewExperiment-master/procedure/subject-14.csv","legacy","Kafkaesque Koffka","3.2.6","mult","0","l","NA","NA","l","l","13392","NA","NA","23402","13392","2","849","legacy","large","1024","2","48000","-16","experiment","9_7_mult_true.jpg","14","even","legacy","150902","NA","82735","NA","NA","1941","NA","1954","69343","150902","152900","25357","67192","1943","mousetracking operator preview effect","0","0","0","no","true","no","1680"
"negative","undefined","1","undefined","undefined","white","no","legacy","legacy","legacy","0","relative","undefined","undefined","32","NA","0","0","0","0","0","0","0","48","48","0","15","0","no","04/08/19 09:29:34","A simple template for the mouse-tracking paradigm","yes","Experiment-FT.osexp","C:\Users\Kristen\Documents\opPreviewExperiment-master\procedure","no","mono","no","24","no","black","no","yes","1050","legacy","32","15","C:/Users/Kristen/Documents/opPreviewExperiment-master/procedure/subject-14.csv","legacy","Kafkaesque Koffka","3.2.6","mult","0","a","NA","NA","l","l","13392","NA","NA","23402","13392","2","974","legacy","large","1024","2","48000","-16","experiment","9_7_mult_FI.jpg","14","even","legacy","152921","NA","82735","NA","NA","1941","NA","1954","69343","152921","155038","25357","67192","1943","mousetracking operator preview effect","0","0","0","no","false","no","1680"
"neutral","undefined","1","undefined","undefined","white","no","legacy","legacy","legacy","0","relative","undefined","undefined","33","NA","0","0","0","0","0","0","0","49","49","0","15","0","no","04/08/19 09:29:34","A simple template for the mouse-tracking paradigm","yes","Experiment-FT.osexp","C:\Users\Kristen\Documents\opPreviewExperiment-master\procedure","no","mono","no","24","no","black","no","yes","1050","legacy","33","15","C:/Users/Kristen/Documents/opPreviewExperiment-master/procedure/subject-14.csv","legacy","Kafkaesque Koffka","3.2.6","mult","0","a","NA","NA","l","l","13392","NA","NA","23402","13392","2","959","legacy","small","1024","2","48000","-16","experiment","2_7_mult_FNI.jpg","14","even","legacy","155064","NA","82735","NA","NA","1941","NA","1954","69343","155064","156995","25357","67192","1943","mousetracking operator preview effect","0","0","0","no","false","no","1680"
"negative","undefined","1","undefined","undefined","white","no","legacy","legacy","legacy","0","relative","undefined","undefined","34","NA","0","0","0","0","0","0","0","50","50","0","15","0","no","04/08/19 09:29:34","A simple template for the mouse-tracking paradigm","yes","Experiment-FT.osexp","C:\Users\Kristen\Documents\opPreviewExperiment-master\procedure","no","mono","no","24","no","black","no","yes","1050","legacy","34","15","C:/Users/Kristen/Documents/opPreviewExperiment-master/procedure/subject-14.csv","legacy","Kafkaesque Koffka","3.2.6","add","0","a","NA","NA","l","l","13392","NA","NA","23402","13392","2","842","legacy","large","1024","2","48000","-16","experiment","4_9_add_FI.jpg","14","even","legacy","157018","NA","82735","NA","NA","1941","NA","1954","69343","157018","159008","25357","67192","1943","mousetracking operator preview effect","0","0","0","no","false","no","1680"
"neutral","undefined","1","undefined","undefined","white","no","legacy","legacy","legacy","0","relative","undefined","undefined","35","NA","0","0","0","0","0","0","0","51","51","0","15","0","no","04/08/19 09:29:34","A simple template for the mouse-tracking paradigm","yes","Experiment-FT.osexp","C:\Users\Kristen\Documents\opPreviewExperiment-master\procedure","no","mono","no","24","no","black","no","yes","1050","legacy","35","15","C:/Users/Kristen/Documents/opPreviewExperiment-master/procedure/subject-14.csv","legacy","Kafkaesque Koffka","3.2.6","add","0","l","NA","NA","l","l","13392","NA","NA","23402","13392","2","1449","legacy","large","1024","2","48000","-16","experiment","4_9_add_true.jpg","14","even","legacy","159038","NA","82735","NA","NA","1941","NA","1954","69343","159038","161467","25357","67192","1943","mousetracking operator preview effect","0","0","0","no","true","no","1680"
"neutral","undefined","1","undefined","undefined","white","no","legacy","legacy","legacy","0","relative","undefined","undefined","36","NA","0","0","0","0","0","0","0","52","52","0","15","0","no","04/08/19 09:29:34","A simple template for the mouse-tracking paradigm","yes","Experiment-FT.osexp","C:\Users\Kristen\Documents\opPreviewExperiment-master\procedure","no","mono","no","24","no","black","no","yes","1050","legacy","36","15","C:/Users/Kristen/Documents/opPreviewExperiment-master/procedure/subject-14.csv","legacy","Kafkaesque Koffka","3.2.6","add","0","l","NA","NA","l","l","13392","NA","NA","23402","13392","2","914","legacy","small","1024","2","48000","-16","experiment","5_3_add_true.jpg","14","even","legacy","161481","NA","82735","NA","NA","1941","NA","1954","69343","161481","163367","25357","67192","1943","mousetracking operator preview effect","0","0","0","no","true","no","1680"
"negative","undefined","1","undefined","undefined","white","no","legacy","legacy","legacy","0","relative","undefined","undefined","37","NA","0","0","0","0","0","0","0","53","53","0","15","0","no","04/08/19 09:29:34","A simple template for the mouse-tracking paradigm","yes","Experiment-FT.osexp","C:\Users\Kristen\Documents\opPreviewExperiment-master\procedure","no","mono","no","24","no","black","no","yes","1050","legacy","37","15","C:/Users/Kristen/Documents/opPreviewExperiment-master/procedure/subject-14.csv","legacy","Kafkaesque Koffka","3.2.6","add","0","l","NA","NA","l","l","13392","NA","NA","23402","13392","2","1336","legacy","large","1024","2","48000","-16","experiment","6_8_add_true.jpg","14","even","legacy","163389","NA","82735","NA","NA","1941","NA","1954","69343","163389","165875","25357","67192","1943","mousetracking operator preview effect","0","0","0","no","true","no","1680"
"neutral","undefined","1","undefined","undefined","white","no","legacy","legacy","legacy","0","relative","undefined","undefined","38","NA","0","0","0","0","0","0","0","54","54","0","15","0","no","04/08/19 09:29:34","A simple template for the mouse-tracking paradigm","yes","Experiment-FT.osexp","C:\Users\Kristen\Documents\opPreviewExperiment-master\procedure","no","mono","no","24","no","black","no","yes","1050","legacy","38","15","C:/Users/Kristen/Documents/opPreviewExperiment-master/procedure/subject-14.csv","legacy","Kafkaesque Koffka","3.2.6","mult","0","a","NA","NA","l","l","13392","NA","NA","23402","13392","2","1404","legacy","large","1024","2","48000","-16","experiment","6_8_mult_FNI.jpg","14","even","legacy","165906","NA","82735","NA","NA","1941","NA","1954","69343","165906","168292","25357","67192","1943","mousetracking operator preview effect","0","0","0","no","false","no","1680"
"negative","undefined","1","undefined","undefined","white","no","legacy","legacy","legacy","0","relative","undefined","undefined","39","NA","0","0","0","0","0","0","0","55","55","0","15","0","no","04/08/19 09:29:34","A simple template for the mouse-tracking paradigm","yes","Experiment-FT.osexp","C:\Users\Kristen\Documents\opPreviewExperiment-master\procedure","no","mono","no","24","no","black","no","yes","1050","legacy","39","15","C:/Users/Kristen/Documents/opPreviewExperiment-master/procedure/subject-14.csv","legacy","Kafkaesque Koffka","3.2.6","mult","0","l","NA","NA","l","l","13392","NA","NA","23402","13392","2","762","legacy","small","1024","2","48000","-16","experiment","5_3_mult_true.jpg","14","even","legacy","168313","NA","82735","NA","NA","1941","NA","1954","69343","168313","170219","25357","67192","1943","mousetracking operator preview effect","0","0","0","no","true","no","1680"
"neutral","undefined","1","undefined","undefined","white","no","legacy","legacy","legacy","0","relative","undefined","undefined","40","NA","0","0","0","0","0","0","0","56","56","0","15","0","no","04/08/19 09:29:34","A simple template for the mouse-tracking paradigm","yes","Experiment-FT.osexp","C:\Users\Kristen\Documents\opPreviewExperiment-master\procedure","no","mono","no","24","no","black","no","yes","1050","legacy","40","15","C:/Users/Kristen/Documents/opPreviewExperiment-master/procedure/subject-14.csv","legacy","Kafkaesque Koffka","3.2.6","mult","0","a","NA","NA","l","l","13392","NA","NA","23402","13392","2","1227","legacy","large","1024","2","48000","-16","experiment","8_4_mult_FNI.jpg","14","even","legacy","170247","NA","82735","NA","NA","1941","NA","1954","69343","170247","172448","25357","67192","1943","mousetracking operator preview effect","0","0","0","no","false","no","1680"
"negative","undefined","1","undefined","undefined","white","no","legacy","legacy","legacy","0","relative","undefined","undefined","41","NA","0","0","0","0","0","0","0","57","57","0","15","0","no","04/08/19 09:29:34","A simple template for the mouse-tracking paradigm","yes","Experiment-FT.osexp","C:\Users\Kristen\Documents\opPreviewExperiment-master\procedure","no","mono","no","24","no","black","no","yes","1050","legacy","41","15","C:/Users/Kristen/Documents/opPreviewExperiment-master/procedure/subject-14.csv","legacy","Kafkaesque Koffka","3.2.6","add","0","a","NA","NA","l","l","13392","NA","NA","23402","13392","2","770","legacy","large","1024","2","48000","-16","experiment","8_4_add_FI.jpg","14","even","legacy","172475","NA","82735","NA","NA","1941","NA","1954","69343","172475","174394","25357","67192","1943","mousetracking operator preview effect","0","0","0","no","false","no","1680"
"negative","undefined","1","undefined","undefined","white","no","legacy","legacy","legacy","0","relative","undefined","undefined","42","NA","0","0","0","0","0","0","0","58","58","0","15","0","no","04/08/19 09:29:34","A simple template for the mouse-tracking paradigm","yes","Experiment-FT.osexp","C:\Users\Kristen\Documents\opPreviewExperiment-master\procedure","no","mono","no","24","no","black","no","yes","1050","legacy","42","15","C:/Users/Kristen/Documents/opPreviewExperiment-master/procedure/subject-14.csv","legacy","Kafkaesque Koffka","3.2.6","mult","0","a","NA","NA","l","l","13392","NA","NA","23402","13392","2","810","legacy","small","1024","2","48000","-16","experiment","3_6_mult_FNI.jpg","14","even","legacy","174414","NA","82735","NA","NA","1941","NA","1954","69343","174414","176362","25357","67192","1943","mousetracking operator preview effect","0","0","0","no","false","no","1680"
"neutral","undefined","1","undefined","undefined","white","no","legacy","legacy","legacy","0","relative","undefined","undefined","43","NA","0","0","0","0","0","0","0","59","59","0","15","0","no","04/08/19 09:29:34","A simple template for the mouse-tracking paradigm","yes","Experiment-FT.osexp","C:\Users\Kristen\Documents\opPreviewExperiment-master\procedure","no","mono","no","24","no","black","no","yes","1050","legacy","43","15","C:/Users/Kristen/Documents/opPreviewExperiment-master/procedure/subject-14.csv","legacy","Kafkaesque Koffka","3.2.6","add","0","l","NA","NA","l","l","13392","NA","NA","23402","13392","2","897","legacy","large","1024","2","48000","-16","experiment","6_8_add_true.jpg","14","even","legacy","176376","NA","82735","NA","NA","1941","NA","1954","69343","176376","178236","25357","67192","1943","mousetracking operator preview effect","0","0","0","no","true","no","1680"
"neutral","undefined","1","undefined","undefined","white","no","legacy","legacy","legacy","0","relative","undefined","undefined","44","NA","0","0","0","0","0","0","0","60","60","0","15","0","no","04/08/19 09:29:34","A simple template for the mouse-tracking paradigm","yes","Experiment-FT.osexp","C:\Users\Kristen\Documents\opPreviewExperiment-master\procedure","no","mono","no","24","no","black","no","yes","1050","legacy","44","15","C:/Users/Kristen/Documents/opPreviewExperiment-master/procedure/subject-14.csv","legacy","Kafkaesque Koffka","3.2.6","add","0","a","NA","NA","l","l","13392","NA","NA","23402","13392","2","940","legacy","small","1024","2","48000","-16","experiment","5_3_add_FI.jpg","14","even","legacy","178251","NA","82735","NA","NA","1941","NA","1954","69343","178251","180168","25357","67192","1943","mousetracking operator preview effect","0","0","0","no","false","no","1680"
"neutral","undefined","1","undefined","undefined","white","no","legacy","legacy","legacy","0","relative","undefined","undefined","45","NA","0","0","0","0","0","0","0","61","61","0","15","0","no","04/08/19 09:29:34","A simple template for the mouse-tracking paradigm","yes","Experiment-FT.osexp","C:\Users\Kristen\Documents\opPreviewExperiment-master\procedure","no","mono","no","24","no","black","no","yes","1050","legacy","45","15","C:/Users/Kristen/Documents/opPreviewExperiment-master/procedure/subject-14.csv","legacy","Kafkaesque Koffka","3.2.6","mult","0","l","NA","NA","l","l","13392","NA","NA","23402","13392","2","847","legacy","small","1024","2","48000","-16","experiment","3_6_mult_true.jpg","14","even","legacy","180195","NA","82735","NA","NA","1941","NA","1954","69343","180195","182022","25357","67192","1943","mousetracking operator preview effect","0","0","0","no","true","no","1680"
"neutral","undefined","1","undefined","undefined","white","no","legacy","legacy","legacy","0","relative","undefined","undefined","46","NA","0","0","0","0","0","0","0","62","62","0","15","0","no","04/08/19 09:29:34","A simple template for the mouse-tracking paradigm","yes","Experiment-FT.osexp","C:\Users\Kristen\Documents\opPreviewExperiment-master\procedure","no","mono","no","24","no","black","no","yes","1050","legacy","46","15","C:/Users/Kristen/Documents/opPreviewExperiment-master/procedure/subject-14.csv","legacy","Kafkaesque Koffka","3.2.6","mult","0","l","NA","NA","l","l","13392","NA","NA","23402","13392","2","749","legacy","small","1024","2","48000","-16","experiment","5_3_mult_true.jpg","14","even","legacy","182054","NA","82735","NA","NA","1941","NA","1954","69343","182054","183783","25357","67192","1943","mousetracking operator preview effect","0","0","0","no","true","no","1680"
"negative","undefined","1","undefined","undefined","white","no","legacy","legacy","legacy","0","relative","undefined","undefined","47","NA","0","0","0","0","0","0","0","63","63","0","15","0","no","04/08/19 09:29:34","A simple template for the mouse-tracking paradigm","yes","Experiment-FT.osexp","C:\Users\Kristen\Documents\opPreviewExperiment-master\procedure","no","mono","no","24","no","black","no","yes","1050","legacy","47","15","C:/Users/Kristen/Documents/opPreviewExperiment-master/procedure/subject-14.csv","legacy","Kafkaesque Koffka","3.2.6","add","0","l","NA","NA","l","l","13392","NA","NA","23402","13392","2","942","legacy","large","1024","2","48000","-16","experiment","4_9_add_true.jpg","14","even","legacy","183805","NA","82735","NA","NA","1941","NA","1954","69343","183805","185898","25357","67192","1943","mousetracking operator preview effect","0","0","0","no","true","no","1680"
"negative","undefined","1","undefined","undefined","white","no","legacy","legacy","legacy","0","relative","undefined","undefined","48","NA","0","0","0","0","0","0","0","64","64","0","15","0","no","04/08/19 09:29:34","A simple template for the mouse-tracking paradigm","yes","Experiment-FT.osexp","C:\Users\Kristen\Documents\opPreviewExperiment-master\procedure","no","mono","no","24","no","black","no","yes","1050","legacy","48","15","C:/Users/Kristen/Documents/opPreviewExperiment-master/procedure/subject-14.csv","legacy","Kafkaesque Koffka","3.2.6","mult","0","l","NA","NA","l","l","13392","NA","NA","23402","13392","2","738","legacy","large","1024","2","48000","-16","experiment","8_4_mult_true.jpg","14","even","legacy","185918","NA","82735","NA","NA","1941","NA","1954","69343","185918","187811","25357","67192","1943","mousetracking operator preview effect","0","0","0","no","true","no","1680"
"neutral","undefined","1","undefined","undefined","white","no","legacy","legacy","legacy","0","relative","undefined","undefined","49","NA","0","0","0","0","0","0","0","65","65","0","15","0","no","04/08/19 09:29:34","A simple template for the mouse-tracking paradigm","yes","Experiment-FT.osexp","C:\Users\Kristen\Documents\opPreviewExperiment-master\procedure","no","mono","no","24","no","black","no","yes","1050","legacy","49","15","C:/Users/Kristen/Documents/opPreviewExperiment-master/procedure/subject-14.csv","legacy","Kafkaesque Koffka","3.2.6","add","0","l","NA","NA","l","l","13392","NA","NA","23402","13392","2","857","legacy","small","1024","2","48000","-16","experiment","8_2_add_true.jpg","14","even","legacy","187840","NA","82735","NA","NA","1941","NA","1954","69343","187840","189662","25357","67192","1943","mousetracking operator preview effect","0","0","0","no","true","no","1680"
"neutral","undefined","1","undefined","undefined","white","no","legacy","legacy","legacy","0","relative","undefined","undefined","50","NA","0","0","0","0","0","0","0","66","66","0","15","0","no","04/08/19 09:29:34","A simple template for the mouse-tracking paradigm","yes","Experiment-FT.osexp","C:\Users\Kristen\Documents\opPreviewExperiment-master\procedure","no","mono","no","24","no","black","no","yes","1050","legacy","50","15","C:/Users/Kristen/Documents/opPreviewExperiment-master/procedure/subject-14.csv","legacy","Kafkaesque Koffka","3.2.6","add","0","a","NA","NA","l","l","13392","NA","NA","23402","13392","2","720","legacy","large","1024","2","48000","-16","experiment","6_8_add_FI.jpg","14","even","legacy","189688","NA","82735","NA","NA","1941","NA","1954","69343","189688","191367","25357","67192","1943","mousetracking operator preview effect","0","0","0","no","false","no","1680"
"negative","undefined","0","undefined","undefined","white","no","legacy","legacy","legacy","0","relative","undefined","undefined","51","NA","0","0","0","0","0","0","0","67","67","0","15","0","no","04/08/19 09:29:34","A simple template for the mouse-tracking paradigm","yes","Experiment-FT.osexp","C:\Users\Kristen\Documents\opPreviewExperiment-master\procedure","no","mono","no","24","no","black","no","yes","1050","legacy","51","15","C:/Users/Kristen/Documents/opPreviewExperiment-master/procedure/subject-14.csv","legacy","Kafkaesque Koffka","3.2.6","mult","0","l","NA","NA","l","l","13392","NA","NA","23402","13392","2","604","legacy","small","1024","2","48000","-16","experiment","5_3_mult_FNI.jpg","14","even","legacy","191388","NA","82735","NA","NA","1941","NA","1954","69343","191388","194162","25357","67192","1943","mousetracking operator preview effect","0","0","0","no","false","no","1680"
"neutral","undefined","1","undefined","undefined","white","no","legacy","legacy","legacy","0","relative","undefined","undefined","52","NA","0","0","0","0","0","0","0","68","68","0","15","0","no","04/08/19 09:29:34","A simple template for the mouse-tracking paradigm","yes","Experiment-FT.osexp","C:\Users\Kristen\Documents\opPreviewExperiment-master\procedure","no","mono","no","24","no","black","no","yes","1050","legacy","52","15","C:/Users/Kristen/Documents/opPreviewExperiment-master/procedure/subject-14.csv","legacy","Kafkaesque Koffka","3.2.6","mult","0","a","NA","NA","l","l","13392","NA","NA","23402","13392","2","999","legacy","large","1024","2","48000","-16","experiment","9_7_mult_FI.jpg","14","even","legacy","194190","NA","82735","NA","NA","1941","NA","1954","69343","194190","196169","25357","67192","1943","mousetracking operator preview effect","0","0","0","no","false","no","1680"
"neutral","undefined","1","undefined","undefined","white","no","legacy","legacy","legacy","0","relative","undefined","undefined","53","NA","0","0","0","0","0","0","0","69","69","0","15","0","no","04/08/19 09:29:34","A simple template for the mouse-tracking paradigm","yes","Experiment-FT.osexp","C:\Users\Kristen\Documents\opPreviewExperiment-master\procedure","no","mono","no","24","no","black","no","yes","1050","legacy","53","15","C:/Users/Kristen/Documents/opPreviewExperiment-master/procedure/subject-14.csv","legacy","Kafkaesque Koffka","3.2.6","mult","0","l","NA","NA","l","l","13392","NA","NA","23402","13392","2","826","legacy","small","1024","2","48000","-16","experiment","3_6_mult_true.jpg","14","even","legacy","196190","NA","82735","NA","NA","1941","NA","1954","69343","196190","197989","25357","67192","1943","mousetracking operator preview effect","0","0","0","no","true","no","1680"
"neutral","undefined","1","undefined","undefined","white","no","legacy","legacy","legacy","0","relative","undefined","undefined","54","NA","0","0","0","0","0","0","0","70","70","0","15","0","no","04/08/19 09:29:34","A simple template for the mouse-tracking paradigm","yes","Experiment-FT.osexp","C:\Users\Kristen\Documents\opPreviewExperiment-master\procedure","no","mono","no","24","no","black","no","yes","1050","legacy","54","15","C:/Users/Kristen/Documents/opPreviewExperiment-master/procedure/subject-14.csv","legacy","Kafkaesque Koffka","3.2.6","mult","0","a","NA","NA","l","l","13392","NA","NA","23402","13392","2","1902","legacy","small","1024","2","48000","-16","experiment","3_6_mult_FNI.jpg","14","even","legacy","198009","NA","82735","NA","NA","1941","NA","1954","69343","198009","200884","25357","67192","1943","mousetracking operator preview effect","0","0","0","no","false","no","1680"
"neutral","undefined","1","undefined","undefined","white","no","legacy","legacy","legacy","0","relative","undefined","undefined","55","NA","0","0","0","0","0","0","0","71","71","0","15","0","no","04/08/19 09:29:34","A simple template for the mouse-tracking paradigm","yes","Experiment-FT.osexp","C:\Users\Kristen\Documents\opPreviewExperiment-master\procedure","no","mono","no","24","no","black","no","yes","1050","legacy","55","15","C:/Users/Kristen/Documents/opPreviewExperiment-master/procedure/subject-14.csv","legacy","Kafkaesque Koffka","3.2.6","add","0","l","NA","NA","l","l","13392","NA","NA","23402","13392","2","1852","legacy","small","1024","2","48000","-16","experiment","2_7_add_true.jpg","14","even","legacy","200914","NA","82735","NA","NA","1941","NA","1954","69343","200914","203730","25357","67192","1943","mousetracking operator preview effect","0","0","0","no","true","no","1680"
"negative","undefined","1","undefined","undefined","white","no","legacy","legacy","legacy","0","relative","undefined","undefined","56","NA","0","0","0","0","0","0","0","72","72","0","15","0","no","04/08/19 09:29:34","A simple template for the mouse-tracking paradigm","yes","Experiment-FT.osexp","C:\Users\Kristen\Documents\opPreviewExperiment-master\procedure","no","mono","no","24","no","black","no","yes","1050","legacy","56","15","C:/Users/Kristen/Documents/opPreviewExperiment-master/procedure/subject-14.csv","legacy","Kafkaesque Koffka","3.2.6","add","0","a","NA","NA","l","l","13392","NA","NA","23402","13392","2","1294","legacy","small","1024","2","48000","-16","experiment","5_3_add_FNI.jpg","14","even","legacy","203751","NA","82735","NA","NA","1941","NA","1954","69343","203751","206192","25357","67192","1943","mousetracking operator preview effect","0","0","0","no","false","no","1680"
"neutral","undefined","1","undefined","undefined","white","no","legacy","legacy","legacy","0","relative","undefined","undefined","57","NA","0","0","0","0","0","0","0","73","73","0","15","0","no","04/08/19 09:29:34","A simple template for the mouse-tracking paradigm","yes","Experiment-FT.osexp","C:\Users\Kristen\Documents\opPreviewExperiment-master\procedure","no","mono","no","24","no","black","no","yes","1050","legacy","57","15","C:/Users/Kristen/Documents/opPreviewExperiment-master/procedure/subject-14.csv","legacy","Kafkaesque Koffka","3.2.6","mult","0","l","NA","NA","l","l","13392","NA","NA","23402","13392","2","920","legacy","large","1024","2","48000","-16","experiment","6_8_mult_true.jpg","14","even","legacy","206213","NA","82735","NA","NA","1941","NA","1954","69343","206213","208098","25357","67192","1943","mousetracking operator preview effect","0","0","0","no","true","no","1680"
"negative","undefined","1","undefined","undefined","white","no","legacy","legacy","legacy","0","relative","undefined","undefined","58","NA","0","0","0","0","0","0","0","74","74","0","15","0","no","04/08/19 09:29:34","A simple template for the mouse-tracking paradigm","yes","Experiment-FT.osexp","C:\Users\Kristen\Documents\opPreviewExperiment-master\procedure","no","mono","no","24","no","black","no","yes","1050","legacy","58","15","C:/Users/Kristen/Documents/opPreviewExperiment-master/procedure/subject-14.csv","legacy","Kafkaesque Koffka","3.2.6","mult","0","a","NA","NA","l","l","13392","NA","NA","23402","13392","2","794","legacy","small","1024","2","48000","-16","experiment","8_2_mult_FNI.jpg","14","even","legacy","208128","NA","82735","NA","NA","1941","NA","1954","69343","208128","210067","25357","67192","1943","mousetracking operator preview effect","0","0","0","no","false","no","1680"
"neutral","undefined","0","undefined","undefined","white","no","legacy","legacy","legacy","0","relative","undefined","undefined","59","NA","0","0","0","0","0","0","0","75","75","0","15","0","no","04/08/19 09:29:34","A simple template for the mouse-tracking paradigm","yes","Experiment-FT.osexp","C:\Users\Kristen\Documents\opPreviewExperiment-master\procedure","no","mono","no","24","no","black","no","yes","1050","legacy","59","15","C:/Users/Kristen/Documents/opPreviewExperiment-master/procedure/subject-14.csv","legacy","Kafkaesque Koffka","3.2.6","add","0","l","NA","NA","l","l","13392","NA","NA","23402","13392","2","1408","legacy","small","1024","2","48000","-16","experiment","8_2_add_FNI.jpg","14","even","legacy","210090","NA","82735","NA","NA","1941","NA","1954","69343","210091","213486","25357","67192","1943","mousetracking operator preview effect","0","0","0","no","false","no","1680"
"negative","undefined","1","undefined","undefined","white","no","legacy","legacy","legacy","0","relative","undefined","undefined","60","NA","0","0","0","0","0","0","0","76","76","0","15","0","no","04/08/19 09:29:34","A simple template for the mouse-tracking paradigm","yes","Experiment-FT.osexp","C:\Users\Kristen\Documents\opPreviewExperiment-master\procedure","no","mono","no","24","no","black","no","yes","1050","legacy","60","15","C:/Users/Kristen/Documents/opPreviewExperiment-master/procedure/subject-14.csv","legacy","Kafkaesque Koffka","3.2.6","add","0","a","NA","NA","l","l","13392","NA","NA","23402","13392","2","851","legacy","small","1024","2","48000","-16","experiment","2_7_add_FNI.jpg","14","even","legacy","213524","NA","82735","NA","NA","1941","NA","1954","69343","213525","215526","25357","67192","1943","mousetracking operator preview effect","0","0","0","no","false","no","1680"
"neutral","undefined","1","undefined","undefined","white","no","legacy","legacy","legacy","0","relative","undefined","undefined","61","NA","0","0","0","0","0","0","0","77","77","0","15","0","no","04/08/19 09:29:34","A simple template for the mouse-tracking paradigm","yes","Experiment-FT.osexp","C:\Users\Kristen\Documents\opPreviewExperiment-master\procedure","no","mono","no","24","no","black","no","yes","1050","legacy","61","15","C:/Users/Kristen/Documents/opPreviewExperiment-master/procedure/subject-14.csv","legacy","Kafkaesque Koffka","3.2.6","add","0","a","NA","NA","l","l","13392","NA","NA","23402","13392","2","838","legacy","large","1024","2","48000","-16","experiment","4_9_add_FI.jpg","14","even","legacy","215552","NA","82735","NA","NA","1941","NA","1954","69343","215552","217366","25357","67192","1943","mousetracking operator preview effect","0","0","0","no","false","no","1680"
"negative","undefined","1","undefined","undefined","white","no","legacy","legacy","legacy","0","relative","undefined","undefined","62","NA","0","0","0","0","0","0","0","78","78","0","15","0","no","04/08/19 09:29:34","A simple template for the mouse-tracking paradigm","yes","Experiment-FT.osexp","C:\Users\Kristen\Documents\opPreviewExperiment-master\procedure","no","mono","no","24","no","black","no","yes","1050","legacy","62","15","C:/Users/Kristen/Documents/opPreviewExperiment-master/procedure/subject-14.csv","legacy","Kafkaesque Koffka","3.2.6","mult","0","l","NA","NA","l","l","13392","NA","NA","23402","13392","2","1128","legacy","small","1024","2","48000","-16","experiment","5_3_mult_true.jpg","14","even","legacy","217387","NA","82735","NA","NA","1941","NA","1954","69343","217387","219671","25357","67192","1943","mousetracking operator preview effect","0","0","0","no","true","no","1680"
"negative","undefined","1","undefined","undefined","white","no","legacy","legacy","legacy","0","relative","undefined","undefined","63","NA","0","0","0","0","0","0","0","79","79","0","15","0","no","04/08/19 09:29:34","A simple template for the mouse-tracking paradigm","yes","Experiment-FT.osexp","C:\Users\Kristen\Documents\opPreviewExperiment-master\procedure","no","mono","no","24","no","black","no","yes","1050","legacy","63","15","C:/Users/Kristen/Documents/opPreviewExperiment-master/procedure/subject-14.csv","legacy","Kafkaesque Koffka","3.2.6","add","0","l","NA","NA","l","l","13392","NA","NA","23402","13392","2","643","legacy","small","1024","2","48000","-16","experiment","3_6_add_true.jpg","14","even","legacy","219691","NA","82735","NA","NA","1941","NA","1954","69343","219691","221479","25357","67192","1943","mousetracking operator preview effect","0","0","0","no","true","no","1680"
"neutral","undefined","1","undefined","undefined","white","no","legacy","legacy","legacy","0","relative","undefined","undefined","64","NA","0","0","0","0","0","0","0","80","80","0","15","0","no","04/08/19 09:29:34","A simple template for the mouse-tracking paradigm","yes","Experiment-FT.osexp","C:\Users\Kristen\Documents\opPreviewExperiment-master\procedure","no","mono","no","24","no","black","no","yes","1050","legacy","64","15","C:/Users/Kristen/Documents/opPreviewExperiment-master/procedure/subject-14.csv","legacy","Kafkaesque Koffka","3.2.6","mult","0","a","NA","NA","l","l","13392","NA","NA","23402","13392","2","871","legacy","small","1024","2","48000","-16","experiment","8_2_mult_FI.jpg","14","even","legacy","221499","NA","82735","NA","NA","1941","NA","1954","69343","221499","223314","25357","67192","1943","mousetracking operator preview effect","0","0","0","no","false","no","1680"
"negative","undefined","1","undefined","undefined","white","no","legacy","legacy","legacy","0","relative","undefined","undefined","65","NA","0","0","0","0","0","0","0","81","81","0","15","0","no","04/08/19 09:29:34","A simple template for the mouse-tracking paradigm","yes","Experiment-FT.osexp","C:\Users\Kristen\Documents\opPreviewExperiment-master\procedure","no","mono","no","24","no","black","no","yes","1050","legacy","65","15","C:/Users/Kristen/Documents/opPreviewExperiment-master/procedure/subject-14.csv","legacy","Kafkaesque Koffka","3.2.6","mult","0","a","NA","NA","l","l","13392","NA","NA","23402","13392","2","797","legacy","large","1024","2","48000","-16","experiment","4_9_mult_FI.jpg","14","even","legacy","223343","NA","82735","NA","NA","1941","NA","1954","69343","223343","225283","25357","67192","1943","mousetracking operator preview effect","0","0","0","no","false","no","1680"
"negative","undefined","1","undefined","undefined","white","no","legacy","legacy","legacy","0","relative","undefined","undefined","66","NA","0","0","0","0","0","0","0","82","82","0","15","0","no","04/08/19 09:29:34","A simple template for the mouse-tracking paradigm","yes","Experiment-FT.osexp","C:\Users\Kristen\Documents\opPreviewExperiment-master\procedure","no","mono","no","24","no","black","no","yes","1050","legacy","66","15","C:/Users/Kristen/Documents/opPreviewExperiment-master/procedure/subject-14.csv","legacy","Kafkaesque Koffka","3.2.6","mult","0","a","NA","NA","l","l","13392","NA","NA","23402","13392","2","718","legacy","small","1024","2","48000","-16","experiment","5_3_mult_FI.jpg","14","even","legacy","225304","NA","82735","NA","NA","1941","NA","1954","69343","225304","227167","25357","67192","1943","mousetracking operator preview effect","0","0","0","no","false","no","1680"
"negative","undefined","1","undefined","undefined","white","no","legacy","legacy","legacy","0","relative","undefined","undefined","67","NA","0","0","0","0","0","0","0","83","83","0","15","0","no","04/08/19 09:29:34","A simple template for the mouse-tracking paradigm","yes","Experiment-FT.osexp","C:\Users\Kristen\Documents\opPreviewExperiment-master\procedure","no","mono","no","24","no","black","no","yes","1050","legacy","67","15","C:/Users/Kristen/Documents/opPreviewExperiment-master/procedure/subject-14.csv","legacy","Kafkaesque Koffka","3.2.6","mult","0","a","NA","NA","l","l","13392","NA","NA","23402","13392","2","867","legacy","large","1024","2","48000","-16","experiment","4_9_mult_FNI.jpg","14","even","legacy","227188","NA","82735","NA","NA","1941","NA","1954","69343","227188","229206","25357","67192","1943","mousetracking operator preview effect","0","0","0","no","false","no","1680"
"negative","undefined","1","undefined","undefined","white","no","legacy","legacy","legacy","0","relative","undefined","undefined","68","NA","0","0","0","0","0","0","0","84","84","0","15","0","no","04/08/19 09:29:34","A simple template for the mouse-tracking paradigm","yes","Experiment-FT.osexp","C:\Users\Kristen\Documents\opPreviewExperiment-master\procedure","no","mono","no","24","no","black","no","yes","1050","legacy","68","15","C:/Users/Kristen/Documents/opPreviewExperiment-master/procedure/subject-14.csv","legacy","Kafkaesque Koffka","3.2.6","add","0","a","NA","NA","l","l","13392","NA","NA","23402","13392","2","1093","legacy","small","1024","2","48000","-16","experiment","8_2_add_FNI.jpg","14","even","legacy","229234","NA","82735","NA","NA","1941","NA","1954","69343","229234","231477","25357","67192","1943","mousetracking operator preview effect","0","0","0","no","false","no","1680"
"negative","undefined","1","undefined","undefined","white","no","legacy","legacy","legacy","0","relative","undefined","undefined","69","NA","0","0","0","0","0","0","0","85","85","0","15","0","no","04/08/19 09:29:34","A simple template for the mouse-tracking paradigm","yes","Experiment-FT.osexp","C:\Users\Kristen\Documents\opPreviewExperiment-master\procedure","no","mono","no","24","no","black","no","yes","1050","legacy","69","15","C:/Users/Kristen/Documents/opPreviewExperiment-master/procedure/subject-14.csv","legacy","Kafkaesque Koffka","3.2.6","add","0","l","NA","NA","l","l","13392","NA","NA","23402","13392","2","688","legacy","small","1024","2","48000","-16","experiment","5_3_add_true.jpg","14","even","legacy","231498","NA","82735","NA","NA","1941","NA","1954","69343","231498","233322","25357","67192","1943","mousetracking operator preview effect","0","0","0","no","true","no","1680"
"negative","undefined","1","undefined","undefined","white","no","legacy","legacy","legacy","0","relative","undefined","undefined","70","NA","0","0","0","0","0","0","0","86","86","0","15","0","no","04/08/19 09:29:34","A simple template for the mouse-tracking paradigm","yes","Experiment-FT.osexp","C:\Users\Kristen\Documents\opPreviewExperiment-master\procedure","no","mono","no","24","no","black","no","yes","1050","legacy","70","15","C:/Users/Kristen/Documents/opPreviewExperiment-master/procedure/subject-14.csv","legacy","Kafkaesque Koffka","3.2.6","add","0","a","NA","NA","l","l","13392","NA","NA","23402","13392","2","755","legacy","small","1024","2","48000","-16","experiment","3_6_add_FI.jpg","14","even","legacy","233352","NA","82735","NA","NA","1941","NA","1954","69343","233352","235265","25357","67192","1943","mousetracking operator preview effect","0","0","0","no","false","no","1680"
"neutral","undefined","0","undefined","undefined","white","no","legacy","legacy","legacy","0","relative","undefined","undefined","71","NA","0","0","0","0","0","0","0","87","87","0","15","0","no","04/08/19 09:29:34","A simple template for the mouse-tracking paradigm","yes","Experiment-FT.osexp","C:\Users\Kristen\Documents\opPreviewExperiment-master\procedure","no","mono","no","24","no","black","no","yes","1050","legacy","71","15","C:/Users/Kristen/Documents/opPreviewExperiment-master/procedure/subject-14.csv","legacy","Kafkaesque Koffka","3.2.6","add","0","l","NA","NA","l","l","13392","NA","NA","23402","13392","2","1402","legacy","large","1024","2","48000","-16","experiment","8_4_add_FNI.jpg","14","even","legacy","235295","NA","82735","NA","NA","1941","NA","1954","69343","235295","238689","25357","67192","1943","mousetracking operator preview effect","0","0","0","no","false","no","1680"
"neutral","undefined","1","undefined","undefined","white","no","legacy","legacy","legacy","0","relative","undefined","undefined","72","NA","0","0","0","0","0","0","0","88","88","0","15","0","no","04/08/19 09:29:34","A simple template for the mouse-tracking paradigm","yes","Experiment-FT.osexp","C:\Users\Kristen\Documents\opPreviewExperiment-master\procedure","no","mono","no","24","no","black","no","yes","1050","legacy","72","15","C:/Users/Kristen/Documents/opPreviewExperiment-master/procedure/subject-14.csv","legacy","Kafkaesque Koffka","3.2.6","mult","0","l","NA","NA","l","l","13392","NA","NA","23402","13392","2","919","legacy","small","1024","2","48000","-16","experiment","5_3_mult_true.jpg","14","even","legacy","238727","NA","82735","NA","NA","1941","NA","1954","69343","238727","240608","25357","67192","1943","mousetracking operator preview effect","0","0","0","no","true","no","1680"
"negative","undefined","1","undefined","undefined","white","no","legacy","legacy","legacy","0","relative","undefined","undefined","73","NA","0","0","0","0","0","0","0","89","89","0","15","0","no","04/08/19 09:29:34","A simple template for the mouse-tracking paradigm","yes","Experiment-FT.osexp","C:\Users\Kristen\Documents\opPreviewExperiment-master\procedure","no","mono","no","24","no","black","no","yes","1050","legacy","73","15","C:/Users/Kristen/Documents/opPreviewExperiment-master/procedure/subject-14.csv","legacy","Kafkaesque Koffka","3.2.6","add","0","l","NA","NA","l","l","13392","NA","NA","23402","13392","2","737","legacy","small","1024","2","48000","-16","experiment","2_7_add_true.jpg","14","even","legacy","240634","NA","82735","NA","NA","1941","NA","1954","69343","240634","242511","25357","67192","1943","mousetracking operator preview effect","0","0","0","no","true","no","1680"
"negative","undefined","1","undefined","undefined","white","no","legacy","legacy","legacy","0","relative","undefined","undefined","74","NA","0","0","0","0","0","0","0","90","90","0","15","0","no","04/08/19 09:29:34","A simple template for the mouse-tracking paradigm","yes","Experiment-FT.osexp","C:\Users\Kristen\Documents\opPreviewExperiment-master\procedure","no","mono","no","24","no","black","no","yes","1050","legacy","74","15","C:/Users/Kristen/Documents/opPreviewExperiment-master/procedure/subject-14.csv","legacy","Kafkaesque Koffka","3.2.6","add","0","l","NA","NA","l","l","13392","NA","NA","23402","13392","2","822","legacy","large","1024","2","48000","-16","experiment","8_4_add_true.jpg","14","even","legacy","242538","NA","82735","NA","NA","1941","NA","1954","69343","242538","244503","25357","67192","1943","mousetracking operator preview effect","0","0","0","no","true","no","1680"
"neutral","undefined","1","undefined","undefined","white","no","legacy","legacy","legacy","0","relative","undefined","undefined","75","NA","0","0","0","0","0","0","0","91","91","0","15","0","no","04/08/19 09:29:34","A simple template for the mouse-tracking paradigm","yes","Experiment-FT.osexp","C:\Users\Kristen\Documents\opPreviewExperiment-master\procedure","no","mono","no","24","no","black","no","yes","1050","legacy","75","15","C:/Users/Kristen/Documents/opPreviewExperiment-master/procedure/subject-14.csv","legacy","Kafkaesque Koffka","3.2.6","mult","0","l","NA","NA","l","l","13392","NA","NA","23402","13392","2","778","legacy","large","1024","2","48000","-16","experiment","8_4_mult_true.jpg","14","even","legacy","244523","NA","82735","NA","NA","1941","NA","1954","69343","244523","246255","25357","67192","1943","mousetracking operator preview effect","0","0","0","no","true","no","1680"
"negative","undefined","1","undefined","undefined","white","no","legacy","legacy","legacy","0","relative","undefined","undefined","76","NA","0","0","0","0","0","0","0","92","92","0","15","0","no","04/08/19 09:29:34","A simple template for the mouse-tracking paradigm","yes","Experiment-FT.osexp","C:\Users\Kristen\Documents\opPreviewExperiment-master\procedure","no","mono","no","24","no","black","no","yes","1050","legacy","76","15","C:/Users/Kristen/Documents/opPreviewExperiment-master/procedure/subject-14.csv","legacy","Kafkaesque Koffka","3.2.6","add","0","a","NA","NA","l","l","13392","NA","NA","23402","13392","2","624","legacy","large","1024","2","48000","-16","experiment","9_7_add_FI.jpg","14","even","legacy","246276","NA","82735","NA","NA","1941","NA","1954","69343","246276","248048","25357","67192","1943","mousetracking operator preview effect","0","0","0","no","false","no","1680"
"negative","undefined","1","undefined","undefined","white","no","legacy","legacy","legacy","0","relative","undefined","undefined","77","NA","0","0","0","0","0","0","0","93","93","0","15","0","no","04/08/19 09:29:34","A simple template for the mouse-tracking paradigm","yes","Experiment-FT.osexp","C:\Users\Kristen\Documents\opPreviewExperiment-master\procedure","no","mono","no","24","no","black","no","yes","1050","legacy","77","15","C:/Users/Kristen/Documents/opPreviewExperiment-master/procedure/subject-14.csv","legacy","Kafkaesque Koffka","3.2.6","mult","0","l","NA","NA","l","l","13392","NA","NA","23402","13392","2","771","legacy","small","1024","2","48000","-16","experiment","3_6_mult_true.jpg","14","even","legacy","248071","NA","82735","NA","NA","1941","NA","1954","69343","248071","249989","25357","67192","1943","mousetracking operator preview effect","0","0","0","no","true","no","1680"
"negative","undefined","1","undefined","undefined","white","no","legacy","legacy","legacy","0","relative","undefined","undefined","78","NA","0","0","0","0","0","0","0","94","94","0","15","0","no","04/08/19 09:29:34","A simple template for the mouse-tracking paradigm","yes","Experiment-FT.osexp","C:\Users\Kristen\Documents\opPreviewExperiment-master\procedure","no","mono","no","24","no","black","no","yes","1050","legacy","78","15","C:/Users/Kristen/Documents/opPreviewExperiment-master/procedure/subject-14.csv","legacy","Kafkaesque Koffka","3.2.6","add","0","l","NA","NA","l","l","13392","NA","NA","23402","13392","2","710","legacy","small","1024","2","48000","-16","experiment","5_3_add_true.jpg","14","even","legacy","250019","NA","82735","NA","NA","1941","NA","1954","69343","250019","251867","25357","67192","1943","mousetracking operator preview effect","0","0","0","no","true","no","1680"
"negative","undefined","0","undefined","undefined","white","no","legacy","legacy","legacy","0","relative","undefined","undefined","79","NA","0","0","0","0","0","0","0","95","95","0","15","0","no","04/08/19 09:29:34","A simple template for the mouse-tracking paradigm","yes","Experiment-FT.osexp","C:\Users\Kristen\Documents\opPreviewExperiment-master\procedure","no","mono","no","24","no","black","no","yes","1050","legacy","79","15","C:/Users/Kristen/Documents/opPreviewExperiment-master/procedure/subject-14.csv","legacy","Kafkaesque Koffka","3.2.6","add","0","a","NA","NA","l","l","13392","NA","NA","23402","13392","2","716","legacy","large","1024","2","48000","-16","experiment","9_7_add_true.jpg","14","even","legacy","251881","NA","82735","NA","NA","1941","NA","1954","69343","251881","254750","25357","67192","1943","mousetracking operator preview effect","0","0","0","no","true","no","1680"
"neutral","undefined","1","undefined","undefined","white","no","legacy","legacy","legacy","0","relative","undefined","undefined","80","NA","0","0","0","0","0","0","0","96","96","0","15","0","no","04/08/19 09:29:34","A simple template for the mouse-tracking paradigm","yes","Experiment-FT.osexp","C:\Users\Kristen\Documents\opPreviewExperiment-master\procedure","no","mono","no","24","no","black","no","yes","1050","legacy","80","15","C:/Users/Kristen/Documents/opPreviewExperiment-master/procedure/subject-14.csv","legacy","Kafkaesque Koffka","3.2.6","add","0","a","NA","NA","l","l","13392","NA","NA","23402","13392","2","729","legacy","large","1024","2","48000","-16","experiment","4_9_add_FNI.jpg","14","even","legacy","254789","NA","82735","NA","NA","1941","NA","1954","69343","254790","256501","25357","67192","1943","mousetracking operator preview effect","0","0","0","no","false","no","1680"
"neutral","undefined","1","undefined","undefined","white","no","legacy","legacy","legacy","0","relative","undefined","undefined","81","NA","0","0","0","0","0","0","0","97","97","0","15","0","no","04/08/19 09:29:34","A simple template for the mouse-tracking paradigm","yes","Experiment-FT.osexp","C:\Users\Kristen\Documents\opPreviewExperiment-master\procedure","no","mono","no","24","no","black","no","yes","1050","legacy","81","15","C:/Users/Kristen/Documents/opPreviewExperiment-master/procedure/subject-14.csv","legacy","Kafkaesque Koffka","3.2.6","mult","0","l","NA","NA","l","l","13392","NA","NA","23402","13392","2","793","legacy","large","1024","2","48000","-16","experiment","6_8_mult_true.jpg","14","even","legacy","256526","NA","82735","NA","NA","1941","NA","1954","69343","256526","258284","25357","67192","1943","mousetracking operator preview effect","0","0","0","no","true","no","1680"
"negative","undefined","0","undefined","undefined","white","no","legacy","legacy","legacy","0","relative","undefined","undefined","82","NA","0","0","0","0","0","0","0","98","98","0","15","0","no","04/08/19 09:29:34","A simple template for the mouse-tracking paradigm","yes","Experiment-FT.osexp","C:\Users\Kristen\Documents\opPreviewExperiment-master\procedure","no","mono","no","24","no","black","no","yes","1050","legacy","82","15","C:/Users/Kristen/Documents/opPreviewExperiment-master/procedure/subject-14.csv","legacy","Kafkaesque Koffka","3.2.6","add","0","l","NA","NA","l","l","13392","NA","NA","23402","13392","2","915","legacy","large","1024","2","48000","-16","experiment","8_4_add_FNI.jpg","14","even","legacy","258304","NA","82735","NA","NA","1941","NA","1954","69343","258304","261359","25357","67192","1943","mousetracking operator preview effect","0","0","0","no","false","no","1680"
"negative","undefined","1","undefined","undefined","white","no","legacy","legacy","legacy","0","relative","undefined","undefined","83","NA","0","0","0","0","0","0","0","99","99","0","15","0","no","04/08/19 09:29:34","A simple template for the mouse-tracking paradigm","yes","Experiment-FT.osexp","C:\Users\Kristen\Documents\opPreviewExperiment-master\procedure","no","mono","no","24","no","black","no","yes","1050","legacy","83","15","C:/Users/Kristen/Documents/opPreviewExperiment-master/procedure/subject-14.csv","legacy","Kafkaesque Koffka","3.2.6","mult","0","a","NA","NA","l","l","13392","NA","NA","23402","13392","2","934","legacy","large","1024","2","48000","-16","experiment","8_4_mult_FNI.jpg","14","even","legacy","261385","NA","82735","NA","NA","1941","NA","1954","69343","261385","263465","25357","67192","1943","mousetracking operator preview effect","0","0","0","no","false","no","1680"
"neutral","undefined","1","undefined","undefined","white","no","legacy","legacy","legacy","0","relative","undefined","undefined","84","NA","0","0","0","0","0","0","0","100","100","0","15","0","no","04/08/19 09:29:34","A simple template for the mouse-tracking paradigm","yes","Experiment-FT.osexp","C:\Users\Kristen\Documents\opPreviewExperiment-master\procedure","no","mono","no","24","no","black","no","yes","1050","legacy","84","15","C:/Users/Kristen/Documents/opPreviewExperiment-master/procedure/subject-14.csv","legacy","Kafkaesque Koffka","3.2.6","add","0","a","NA","NA","l","l","13392","NA","NA","23402","13392","2","2943","legacy","large","1024","2","48000","-16","experiment","6_8_add_FNI.jpg","14","even","legacy","263486","NA","82735","NA","NA","1941","NA","1954","69343","263486","267405","25357","67192","1943","mousetracking operator preview effect","0","0","0","no","false","no","1680"
"neutral","undefined","1","undefined","undefined","white","no","legacy","legacy","legacy","0","relative","undefined","undefined","85","NA","0","0","0","0","0","0","0","101","101","0","15","0","no","04/08/19 09:29:34","A simple template for the mouse-tracking paradigm","yes","Experiment-FT.osexp","C:\Users\Kristen\Documents\opPreviewExperiment-master\procedure","no","mono","no","24","no","black","no","yes","1050","legacy","85","15","C:/Users/Kristen/Documents/opPreviewExperiment-master/procedure/subject-14.csv","legacy","Kafkaesque Koffka","3.2.6","add","0","a","NA","NA","l","l","13392","NA","NA","23402","13392","2","1178","legacy","small","1024","2","48000","-16","experiment","2_7_add_FI.jpg","14","even","legacy","267430","NA","82735","NA","NA","1941","NA","1954","69343","267431","269583","25357","67192","1943","mousetracking operator preview effect","0","0","0","no","false","no","1680"
"negative","undefined","1","undefined","undefined","white","no","legacy","legacy","legacy","0","relative","undefined","undefined","86","NA","0","0","0","0","0","0","0","102","102","0","15","0","no","04/08/19 09:29:34","A simple template for the mouse-tracking paradigm","yes","Experiment-FT.osexp","C:\Users\Kristen\Documents\opPreviewExperiment-master\procedure","no","mono","no","24","no","black","no","yes","1050","legacy","86","15","C:/Users/Kristen/Documents/opPreviewExperiment-master/procedure/subject-14.csv","legacy","Kafkaesque Koffka","3.2.6","mult","0","l","NA","NA","l","l","13392","NA","NA","23402","13392","2","671","legacy","small","1024","2","48000","-16","experiment","8_2_mult_true.jpg","14","even","legacy","269604","NA","82735","NA","NA","1941","NA","1954","69343","269604","271409","25357","67192","1943","mousetracking operator preview effect","0","0","0","no","true","no","1680"
"negative","undefined","0","undefined","undefined","white","no","legacy","legacy","legacy","0","relative","undefined","undefined","87","NA","0","0","0","0","0","0","0","103","103","0","15","0","no","04/08/19 09:29:34","A simple template for the mouse-tracking paradigm","yes","Experiment-FT.osexp","C:\Users\Kristen\Documents\opPreviewExperiment-master\procedure","no","mono","no","24","no","black","no","yes","1050","legacy","87","15","C:/Users/Kristen/Documents/opPreviewExperiment-master/procedure/subject-14.csv","legacy","Kafkaesque Koffka","3.2.6","add","0","a","NA","NA","l","l","13392","NA","NA","23402","13392","2","1353","legacy","large","1024","2","48000","-16","experiment","9_7_add_true.jpg","14","even","legacy","271431","NA","82735","NA","NA","1941","NA","1954","69343","271431","274937","25357","67192","1943","mousetracking operator preview effect","0","0","0","no","true","no","1680"
"neutral","undefined","1","undefined","undefined","white","no","legacy","legacy","legacy","0","relative","undefined","undefined","88","NA","0","0","0","0","0","0","0","104","104","0","15","0","no","04/08/19 09:29:34","A simple template for the mouse-tracking paradigm","yes","Experiment-FT.osexp","C:\Users\Kristen\Documents\opPreviewExperiment-master\procedure","no","mono","no","24","no","black","no","yes","1050","legacy","88","15","C:/Users/Kristen/Documents/opPreviewExperiment-master/procedure/subject-14.csv","legacy","Kafkaesque Koffka","3.2.6","mult","0","l","NA","NA","l","l","13392","NA","NA","23402","13392","2","803","legacy","small","1024","2","48000","-16","experiment","2_7_mult_true.jpg","14","even","legacy","274977","NA","82735","NA","NA","1941","NA","1954","69343","274978","276748","25357","67192","1943","mousetracking operator preview effect","0","0","0","no","true","no","1680"
"negative","undefined","1","undefined","undefined","white","no","legacy","legacy","legacy","0","relative","undefined","undefined","89","NA","0","0","0","0","0","0","0","105","105","0","15","0","no","04/08/19 09:29:34","A simple template for the mouse-tracking paradigm","yes","Experiment-FT.osexp","C:\Users\Kristen\Documents\opPreviewExperiment-master\procedure","no","mono","no","24","no","black","no","yes","1050","legacy","89","15","C:/Users/Kristen/Documents/opPreviewExperiment-master/procedure/subject-14.csv","legacy","Kafkaesque Koffka","3.2.6","add","0","a","NA","NA","l","l","13392","NA","NA","23402","13392","2","1444","legacy","large","1024","2","48000","-16","experiment","6_8_add_FI.jpg","14","even","legacy","276773","NA","82735","NA","NA","1941","NA","1954","69343","276773","279357","25357","67192","1943","mousetracking operator preview effect","0","0","0","no","false","no","1680"
"negative","undefined","0","undefined","undefined","white","no","legacy","legacy","legacy","0","relative","undefined","undefined","90","NA","0","0","0","0","0","0","0","106","106","0","15","0","no","04/08/19 09:29:34","A simple template for the mouse-tracking paradigm","yes","Experiment-FT.osexp","C:\Users\Kristen\Documents\opPreviewExperiment-master\procedure","no","mono","no","24","no","black","no","yes","1050","legacy","90","15","C:/Users/Kristen/Documents/opPreviewExperiment-master/procedure/subject-14.csv","legacy","Kafkaesque Koffka","3.2.6","add","0","l","NA","NA","l","l","13392","NA","NA","23402","13392","2","1629","legacy","large","1024","2","48000","-16","experiment","6_8_add_FNI.jpg","14","even","legacy","279382","NA","82735","NA","NA","1941","NA","1954","69343","279382","283171","25357","67192","1943","mousetracking operator preview effect","0","0","0","no","false","no","1680"
"negative","undefined","1","undefined","undefined","white","no","legacy","legacy","legacy","0","relative","undefined","undefined","91","NA","0","0","0","0","0","0","0","107","107","0","15","0","no","04/08/19 09:29:34","A simple template for the mouse-tracking paradigm","yes","Experiment-FT.osexp","C:\Users\Kristen\Documents\opPreviewExperiment-master\procedure","no","mono","no","24","no","black","no","yes","1050","legacy","91","15","C:/Users/Kristen/Documents/opPreviewExperiment-master/procedure/subject-14.csv","legacy","Kafkaesque Koffka","3.2.6","mult","0","l","NA","NA","l","l","13392","NA","NA","23402","13392","2","754","legacy","small","1024","2","48000","-16","experiment","2_7_mult_true.jpg","14","even","legacy","283196","NA","82735","NA","NA","1941","NA","1954","69343","283197","285095","25357","67192","1943","mousetracking operator preview effect","0","0","0","no","true","no","1680"
"negative","undefined","1","undefined","undefined","white","no","legacy","legacy","legacy","0","relative","undefined","undefined","92","NA","0","0","0","0","0","0","0","108","108","0","15","0","no","04/08/19 09:29:34","A simple template for the mouse-tracking paradigm","yes","Experiment-FT.osexp","C:\Users\Kristen\Documents\opPreviewExperiment-master\procedure","no","mono","no","24","no","black","no","yes","1050","legacy","92","15","C:/Users/Kristen/Documents/opPreviewExperiment-master/procedure/subject-14.csv","legacy","Kafkaesque Koffka","3.2.6","mult","0","a","NA","NA","l","l","13392","NA","NA","23402","13392","2","1452","legacy","large","1024","2","48000","-16","experiment","6_8_mult_FNI.jpg","14","even","legacy","285116","NA","82735","NA","NA","1941","NA","1954","69343","285116","287705","25357","67192","1943","mousetracking operator preview effect","0","0","0","no","false","no","1680"
