"SOAcondition","acc","accuracy","average_response_time","avg_rt","background","bidi","canvas_backend","clock_backend","color_backend","compensation","coordinates","correct","correct_instruction1","count_block1_sequence","count_block2_sequence","count_block_1","count_block_2","count_breakScreen","count_experiment","count_finish","count_instruction1","count_instruction2","count_keyboard_script","count_logger","count_practiceBlock","count_practice_sequence","count_setup_script","custom_cursor","datetime","description","disable_garbage_collection","experiment_file","experiment_path","font_bold","font_family","font_italic","font_size","font_underline","foreground","form_clicks","fullscreen","height","keyboard_backend","live_row","live_row_practiceBlock","logfile","mouse_backend","opensesame_codename","opensesame_version","operation","repeat_cycle","response","response_breakScreen","response_finish","response_instruction1","response_instruction2","response_time","response_time_breakScreen","response_time_finish","response_time_instruction1","response_time_instruction2","round_decimals","rt","sampler_backend","size","sound_buf_size","sound_channels","sound_freq","sound_sample_size","start","stimulus","subject_nr","subject_parity","synth_backend","time_block1_sequence","time_block2_sequence","time_block_1","time_block_2","time_breakScreen","time_experiment","time_finish","time_instruction1","time_instruction2","time_keyboard_script","time_logger","time_practiceBlock","time_practice_sequence","time_setup_script","title","total_correct","total_response_time","total_responses","transparent_variables","truth","uniform_coordinates","width"
"negative","undefined","1","undefined","undefined","white","no","legacy","legacy","legacy","0","relative","undefined","undefined","NA","NA","0","0","0","0","0","0","0","0","0","0","0","0","no","04/24/19 11:37:24","A simple template for the mouse-tracking paradigm","yes","Experiment-TF.osexp","C:\Users\Kristen\Documents\opPreviewExperiment-master\procedure","no","mono","no","24","no","black","no","yes","1050","legacy","0","0","C:/Users/Kristen/Documents/opPreviewExperiment-master/procedure/subject-21.csv","legacy","Kafkaesque Koffka","3.2.6","add","0","a","NA","NA","a","NA","19354","NA","NA","19354","NA","2","5297","legacy","NA","1024","2","48000","-16","experiment","1_4_add_T.jpg","21","odd","legacy","NA","NA","NA","NA","NA","2013","NA","2027","NA","21386","27841","21382","21386","2014","mousetracking operator preview effect","0","0","0","no","true","no","1680"
"neutral","undefined","1","undefined","undefined","white","no","legacy","legacy","legacy","0","relative","undefined","undefined","NA","NA","0","0","0","0","0","0","0","1","1","0","1","0","no","04/24/19 11:37:24","A simple template for the mouse-tracking paradigm","yes","Experiment-TF.osexp","C:\Users\Kristen\Documents\opPreviewExperiment-master\procedure","no","mono","no","24","no","black","no","yes","1050","legacy","1","1","C:/Users/Kristen/Documents/opPreviewExperiment-master/procedure/subject-21.csv","legacy","Kafkaesque Koffka","3.2.6","mult","0","l","NA","NA","a","NA","19354","NA","NA","19354","NA","2","1454","legacy","NA","1024","2","48000","-16","experiment","1_4_mult_F.jpg","21","odd","legacy","NA","NA","NA","NA","NA","2013","NA","2027","NA","27868","30294","21382","27868","2014","mousetracking operator preview effect","0","0","0","no","false","no","1680"
"neutral","undefined","1","undefined","undefined","white","no","legacy","legacy","legacy","0","relative","undefined","undefined","NA","NA","0","0","0","0","0","0","0","2","2","0","2","0","no","04/24/19 11:37:24","A simple template for the mouse-tracking paradigm","yes","Experiment-TF.osexp","C:\Users\Kristen\Documents\opPreviewExperiment-master\procedure","no","mono","no","24","no","black","no","yes","1050","legacy","2","2","C:/Users/Kristen/Documents/opPreviewExperiment-master/procedure/subject-21.csv","legacy","Kafkaesque Koffka","3.2.6","mult","0","a","NA","NA","a","NA","19354","NA","NA","19354","NA","2","2422","legacy","NA","1024","2","48000","-16","experiment","1_4_mult_T.jpg","21","odd","legacy","NA","NA","NA","NA","NA","2013","NA","2027","NA","30315","33711","21382","30315","2014","mousetracking operator preview effect","0","0","0","no","true","no","1680"
"neutral","undefined","0","undefined","undefined","white","no","legacy","legacy","legacy","0","relative","undefined","undefined","NA","NA","0","0","0","0","0","0","0","3","3","0","3","0","no","04/24/19 11:37:24","A simple template for the mouse-tracking paradigm","yes","Experiment-TF.osexp","C:\Users\Kristen\Documents\opPreviewExperiment-master\procedure","no","mono","no","24","no","black","no","yes","1050","legacy","3","3","C:/Users/Kristen/Documents/opPreviewExperiment-master/procedure/subject-21.csv","legacy","Kafkaesque Koffka","3.2.6","add","0","a","NA","NA","a","NA","19354","NA","NA","19354","NA","2","5213","legacy","NA","1024","2","48000","-16","experiment","1_4_add_F.jpg","21","odd","legacy","NA","NA","NA","NA","NA","2013","NA","2027","NA","33742","40945","21382","33742","2014","mousetracking operator preview effect","0","0","0","no","false","no","1680"
"neutral","undefined","0","undefined","undefined","white","no","legacy","legacy","legacy","0","relative","undefined","undefined","NA","NA","0","0","0","0","0","0","0","4","4","0","4","0","no","04/24/19 11:37:24","A simple template for the mouse-tracking paradigm","yes","Experiment-TF.osexp","C:\Users\Kristen\Documents\opPreviewExperiment-master\procedure","no","mono","no","24","no","black","no","yes","1050","legacy","4","4","C:/Users/Kristen/Documents/opPreviewExperiment-master/procedure/subject-21.csv","legacy","Kafkaesque Koffka","3.2.6","mult","0","l","NA","NA","a","NA","19354","NA","NA","19354","NA","2","3185","legacy","NA","1024","2","48000","-16","experiment","0_3_mult_T.jpg","21","odd","legacy","NA","NA","NA","NA","NA","2013","NA","2027","NA","40983","46163","21382","40982","2014","mousetracking operator preview effect","0","0","0","no","true","no","1680"
"neutral","undefined","1","undefined","undefined","white","no","legacy","legacy","legacy","0","relative","undefined","undefined","NA","NA","0","0","0","0","0","0","0","5","5","0","5","0","no","04/24/19 11:37:24","A simple template for the mouse-tracking paradigm","yes","Experiment-TF.osexp","C:\Users\Kristen\Documents\opPreviewExperiment-master\procedure","no","mono","no","24","no","black","no","yes","1050","legacy","5","5","C:/Users/Kristen/Documents/opPreviewExperiment-master/procedure/subject-21.csv","legacy","Kafkaesque Koffka","3.2.6","mult","0","l","NA","NA","a","NA","19354","NA","NA","19354","NA","2","2594","legacy","NA","1024","2","48000","-16","experiment","0_3_mult_F.jpg","21","odd","legacy","NA","NA","NA","NA","NA","2013","NA","2027","NA","46199","49780","21382","46199","2014","mousetracking operator preview effect","0","0","0","no","false","no","1680"
"negative","undefined","1","undefined","undefined","white","no","legacy","legacy","legacy","0","relative","undefined","undefined","NA","NA","0","0","0","0","0","0","0","6","6","0","6","0","no","04/24/19 11:37:24","A simple template for the mouse-tracking paradigm","yes","Experiment-TF.osexp","C:\Users\Kristen\Documents\opPreviewExperiment-master\procedure","no","mono","no","24","no","black","no","yes","1050","legacy","6","6","C:/Users/Kristen/Documents/opPreviewExperiment-master/procedure/subject-21.csv","legacy","Kafkaesque Koffka","3.2.6","mult","0","a","NA","NA","a","NA","19354","NA","NA","19354","NA","2","1849","legacy","NA","1024","2","48000","-16","experiment","0_3_mult_T.jpg","21","odd","legacy","NA","NA","NA","NA","NA","2013","NA","2027","NA","49802","52804","21382","49802","2014","mousetracking operator preview effect","0","0","0","no","true","no","1680"
"negative","undefined","1","undefined","undefined","white","no","legacy","legacy","legacy","0","relative","undefined","undefined","NA","NA","0","0","0","0","0","0","0","7","7","0","7","0","no","04/24/19 11:37:24","A simple template for the mouse-tracking paradigm","yes","Experiment-TF.osexp","C:\Users\Kristen\Documents\opPreviewExperiment-master\procedure","no","mono","no","24","no","black","no","yes","1050","legacy","7","7","C:/Users/Kristen/Documents/opPreviewExperiment-master/procedure/subject-21.csv","legacy","Kafkaesque Koffka","3.2.6","mult","0","l","NA","NA","a","NA","19354","NA","NA","19354","NA","2","5260","legacy","NA","1024","2","48000","-16","experiment","1_4_mult_F.jpg","21","odd","legacy","NA","NA","NA","NA","NA","2013","NA","2027","NA","52825","59237","21382","52825","2014","mousetracking operator preview effect","0","0","0","no","false","no","1680"
"negative","undefined","1","undefined","undefined","white","no","legacy","legacy","legacy","0","relative","undefined","undefined","NA","NA","0","0","0","0","0","0","0","8","8","0","8","0","no","04/24/19 11:37:24","A simple template for the mouse-tracking paradigm","yes","Experiment-TF.osexp","C:\Users\Kristen\Documents\opPreviewExperiment-master\procedure","no","mono","no","24","no","black","no","yes","1050","legacy","8","8","C:/Users/Kristen/Documents/opPreviewExperiment-master/procedure/subject-21.csv","legacy","Kafkaesque Koffka","3.2.6","mult","0","a","NA","NA","a","NA","19354","NA","NA","19354","NA","2","1173","legacy","NA","1024","2","48000","-16","experiment","1_4_mult_T.jpg","21","odd","legacy","NA","NA","NA","NA","NA","2013","NA","2027","NA","59257","61578","21382","59257","2014","mousetracking operator preview effect","0","0","0","no","true","no","1680"
"neutral","undefined","1","undefined","undefined","white","no","legacy","legacy","legacy","0","relative","undefined","undefined","NA","NA","0","0","0","0","0","0","0","9","9","0","9","0","no","04/24/19 11:37:24","A simple template for the mouse-tracking paradigm","yes","Experiment-TF.osexp","C:\Users\Kristen\Documents\opPreviewExperiment-master\procedure","no","mono","no","24","no","black","no","yes","1050","legacy","9","9","C:/Users/Kristen/Documents/opPreviewExperiment-master/procedure/subject-21.csv","legacy","Kafkaesque Koffka","3.2.6","add","0","a","NA","NA","a","NA","19354","NA","NA","19354","NA","2","1157","legacy","NA","1024","2","48000","-16","experiment","0_3_add_T.jpg","21","odd","legacy","NA","NA","NA","NA","NA","2013","NA","2027","NA","61613","63755","21382","61613","2014","mousetracking operator preview effect","0","0","0","no","true","no","1680"
"negative","undefined","1","undefined","undefined","white","no","legacy","legacy","legacy","0","relative","undefined","undefined","NA","NA","0","0","0","0","0","0","0","10","10","0","10","0","no","04/24/19 11:37:24","A simple template for the mouse-tracking paradigm","yes","Experiment-TF.osexp","C:\Users\Kristen\Documents\opPreviewExperiment-master\procedure","no","mono","no","24","no","black","no","yes","1050","legacy","10","10","C:/Users/Kristen/Documents/opPreviewExperiment-master/procedure/subject-21.csv","legacy","Kafkaesque Koffka","3.2.6","add","0","l","NA","NA","a","NA","19354","NA","NA","19354","NA","2","1858","legacy","NA","1024","2","48000","-16","experiment","1_4_add_F.jpg","21","odd","legacy","NA","NA","NA","NA","NA","2013","NA","2027","NA","63777","66769","21382","63777","2014","mousetracking operator preview effect","0","0","0","no","false","no","1680"
"neutral","undefined","0","undefined","undefined","white","no","legacy","legacy","legacy","0","relative","undefined","undefined","NA","NA","0","0","0","0","0","0","0","11","11","0","11","0","no","04/24/19 11:37:24","A simple template for the mouse-tracking paradigm","yes","Experiment-TF.osexp","C:\Users\Kristen\Documents\opPreviewExperiment-master\procedure","no","mono","no","24","no","black","no","yes","1050","legacy","11","11","C:/Users/Kristen/Documents/opPreviewExperiment-master/procedure/subject-21.csv","legacy","Kafkaesque Koffka","3.2.6","add","0","a","NA","NA","a","NA","19354","NA","NA","19354","NA","2","1206","legacy","NA","1024","2","48000","-16","experiment","0_3_add_F.jpg","21","odd","legacy","NA","NA","NA","NA","NA","2013","NA","2027","NA","66791","69990","21382","66791","2014","mousetracking operator preview effect","0","0","0","no","false","no","1680"
"negative","undefined","1","undefined","undefined","white","no","legacy","legacy","legacy","0","relative","undefined","undefined","NA","NA","0","0","0","0","0","0","0","12","12","0","12","0","no","04/24/19 11:37:24","A simple template for the mouse-tracking paradigm","yes","Experiment-TF.osexp","C:\Users\Kristen\Documents\opPreviewExperiment-master\procedure","no","mono","no","24","no","black","no","yes","1050","legacy","12","12","C:/Users/Kristen/Documents/opPreviewExperiment-master/procedure/subject-21.csv","legacy","Kafkaesque Koffka","3.2.6","add","0","l","NA","NA","a","NA","19354","NA","NA","19354","NA","2","2532","legacy","NA","1024","2","48000","-16","experiment","0_3_add_F.jpg","21","odd","legacy","NA","NA","NA","NA","NA","2013","NA","2027","NA","70033","73719","21382","70033","2014","mousetracking operator preview effect","0","0","0","no","false","no","1680"
"negative","undefined","1","undefined","undefined","white","no","legacy","legacy","legacy","0","relative","undefined","undefined","NA","NA","0","0","0","0","0","0","0","13","13","0","13","0","no","04/24/19 11:37:24","A simple template for the mouse-tracking paradigm","yes","Experiment-TF.osexp","C:\Users\Kristen\Documents\opPreviewExperiment-master\procedure","no","mono","no","24","no","black","no","yes","1050","legacy","13","13","C:/Users/Kristen/Documents/opPreviewExperiment-master/procedure/subject-21.csv","legacy","Kafkaesque Koffka","3.2.6","add","0","a","NA","NA","a","NA","19354","NA","NA","19354","NA","2","2410","legacy","NA","1024","2","48000","-16","experiment","0_3_add_T.jpg","21","odd","legacy","NA","NA","NA","NA","NA","2013","NA","2027","NA","73740","77295","21382","73740","2014","mousetracking operator preview effect","0","0","0","no","true","no","1680"
"negative","undefined","1","undefined","undefined","white","no","legacy","legacy","legacy","0","relative","undefined","undefined","NA","NA","0","0","0","0","0","0","0","14","14","0","14","0","no","04/24/19 11:37:24","A simple template for the mouse-tracking paradigm","yes","Experiment-TF.osexp","C:\Users\Kristen\Documents\opPreviewExperiment-master\procedure","no","mono","no","24","no","black","no","yes","1050","legacy","14","14","C:/Users/Kristen/Documents/opPreviewExperiment-master/procedure/subject-21.csv","legacy","Kafkaesque Koffka","3.2.6","mult","0","l","NA","NA","a","NA","19354","NA","NA","19354","NA","2","2872","legacy","NA","1024","2","48000","-16","experiment","0_3_mult_F.jpg","21","odd","legacy","NA","NA","NA","NA","NA","2013","NA","2027","NA","77316","81332","21382","77316","2014","mousetracking operator preview effect","0","0","0","no","false","no","1680"
"neutral","undefined","1","undefined","undefined","white","no","legacy","legacy","legacy","0","relative","undefined","undefined","NA","NA","0","0","0","0","0","0","0","15","15","0","15","0","no","04/24/19 11:37:24","A simple template for the mouse-tracking paradigm","yes","Experiment-TF.osexp","C:\Users\Kristen\Documents\opPreviewExperiment-master\procedure","no","mono","no","24","no","black","no","yes","1050","legacy","15","15","C:/Users/Kristen/Documents/opPreviewExperiment-master/procedure/subject-21.csv","legacy","Kafkaesque Koffka","3.2.6","add","0","a","NA","NA","a","NA","19354","NA","NA","19354","NA","2","1708","legacy","NA","1024","2","48000","-16","experiment","1_4_add_T.jpg","21","odd","legacy","NA","NA","NA","NA","NA","2013","NA","2027","NA","81353","84039","21382","81353","2014","mousetracking operator preview effect","0","0","0","no","true","no","1680"
"negative","undefined","1","undefined","undefined","white","no","legacy","legacy","legacy","0","relative","undefined","undefined","0","NA","0","0","0","0","0","0","0","16","16","0","15","0","no","04/24/19 11:37:24","A simple template for the mouse-tracking paradigm","yes","Experiment-TF.osexp","C:\Users\Kristen\Documents\opPreviewExperiment-master\procedure","no","mono","no","24","no","black","no","yes","1050","legacy","0","15","C:/Users/Kristen/Documents/opPreviewExperiment-master/procedure/subject-21.csv","legacy","Kafkaesque Koffka","3.2.6","add","0","l","NA","NA","a","a","5062","NA","NA","19354","5062","2","2220","legacy","large","1024","2","48000","-16","experiment","6_8_add_FI.jpg","21","odd","legacy","89137","NA","89127","NA","NA","2013","NA","2027","84065","89137","92500","21382","81353","2014","mousetracking operator preview effect","0","0","0","no","false","no","1680"
"negative","undefined","1","undefined","undefined","white","no","legacy","legacy","legacy","0","relative","undefined","undefined","1","NA","0","0","0","0","0","0","0","17","17","0","15","0","no","04/24/19 11:37:24","A simple template for the mouse-tracking paradigm","yes","Experiment-TF.osexp","C:\Users\Kristen\Documents\opPreviewExperiment-master\procedure","no","mono","no","24","no","black","no","yes","1050","legacy","1","15","C:/Users/Kristen/Documents/opPreviewExperiment-master/procedure/subject-21.csv","legacy","Kafkaesque Koffka","3.2.6","add","0","l","NA","NA","a","a","5062","NA","NA","19354","5062","2","2106","legacy","large","1024","2","48000","-16","experiment","9_7_add_FNI.jpg","21","odd","legacy","92530","NA","89127","NA","NA","2013","NA","2027","84065","92530","95791","21382","81353","2014","mousetracking operator preview effect","0","0","0","no","false","no","1680"
"neutral","undefined","1","undefined","undefined","white","no","legacy","legacy","legacy","0","relative","undefined","undefined","2","NA","0","0","0","0","0","0","0","18","18","0","15","0","no","04/24/19 11:37:24","A simple template for the mouse-tracking paradigm","yes","Experiment-TF.osexp","C:\Users\Kristen\Documents\opPreviewExperiment-master\procedure","no","mono","no","24","no","black","no","yes","1050","legacy","2","15","C:/Users/Kristen/Documents/opPreviewExperiment-master/procedure/subject-21.csv","legacy","Kafkaesque Koffka","3.2.6","mult","0","a","NA","NA","a","a","5062","NA","NA","19354","5062","2","5095","legacy","large","1024","2","48000","-16","experiment","9_7_mult_true.jpg","21","odd","legacy","95805","NA","89127","NA","NA","2013","NA","2027","84065","95805","101879","21382","81353","2014","mousetracking operator preview effect","0","0","0","no","true","no","1680"
"negative","undefined","1","undefined","undefined","white","no","legacy","legacy","legacy","0","relative","undefined","undefined","3","NA","0","0","0","0","0","0","0","19","19","0","15","0","no","04/24/19 11:37:24","A simple template for the mouse-tracking paradigm","yes","Experiment-TF.osexp","C:\Users\Kristen\Documents\opPreviewExperiment-master\procedure","no","mono","no","24","no","black","no","yes","1050","legacy","3","15","C:/Users/Kristen/Documents/opPreviewExperiment-master/procedure/subject-21.csv","legacy","Kafkaesque Koffka","3.2.6","add","0","a","NA","NA","a","a","5062","NA","NA","19354","5062","2","1603","legacy","large","1024","2","48000","-16","experiment","8_4_add_true.jpg","21","odd","legacy","101901","NA","89127","NA","NA","2013","NA","2027","84065","101901","104638","21382","81353","2014","mousetracking operator preview effect","0","0","0","no","true","no","1680"
"negative","undefined","1","undefined","undefined","white","no","legacy","legacy","legacy","0","relative","undefined","undefined","4","NA","0","0","0","0","0","0","0","20","20","0","15","0","no","04/24/19 11:37:24","A simple template for the mouse-tracking paradigm","yes","Experiment-TF.osexp","C:\Users\Kristen\Documents\opPreviewExperiment-master\procedure","no","mono","no","24","no","black","no","yes","1050","legacy","4","15","C:/Users/Kristen/Documents/opPreviewExperiment-master/procedure/subject-21.csv","legacy","Kafkaesque Koffka","3.2.6","add","0","l","NA","NA","a","a","5062","NA","NA","19354","5062","2","923","legacy","small","1024","2","48000","-16","experiment","8_2_add_FNI.jpg","21","odd","legacy","104658","NA","89127","NA","NA","2013","NA","2027","84065","104658","106731","21382","81353","2014","mousetracking operator preview effect","0","0","0","no","false","no","1680"
"neutral","undefined","1","undefined","undefined","white","no","legacy","legacy","legacy","0","relative","undefined","undefined","5","NA","0","0","0","0","0","0","0","21","21","0","15","0","no","04/24/19 11:37:24","A simple template for the mouse-tracking paradigm","yes","Experiment-TF.osexp","C:\Users\Kristen\Documents\opPreviewExperiment-master\procedure","no","mono","no","24","no","black","no","yes","1050","legacy","5","15","C:/Users/Kristen/Documents/opPreviewExperiment-master/procedure/subject-21.csv","legacy","Kafkaesque Koffka","3.2.6","mult","0","a","NA","NA","a","a","5062","NA","NA","19354","5062","2","899","legacy","small","1024","2","48000","-16","experiment","2_7_mult_true.jpg","21","odd","legacy","106755","NA","89127","NA","NA","2013","NA","2027","84065","106755","108634","21382","81353","2014","mousetracking operator preview effect","0","0","0","no","true","no","1680"
"negative","undefined","1","undefined","undefined","white","no","legacy","legacy","legacy","0","relative","undefined","undefined","6","NA","0","0","0","0","0","0","0","22","22","0","15","0","no","04/24/19 11:37:24","A simple template for the mouse-tracking paradigm","yes","Experiment-TF.osexp","C:\Users\Kristen\Documents\opPreviewExperiment-master\procedure","no","mono","no","24","no","black","no","yes","1050","legacy","6","15","C:/Users/Kristen/Documents/opPreviewExperiment-master/procedure/subject-21.csv","legacy","Kafkaesque Koffka","3.2.6","add","0","l","NA","NA","a","a","5062","NA","NA","19354","5062","2","1328","legacy","large","1024","2","48000","-16","experiment","8_4_add_FI.jpg","21","odd","legacy","108655","NA","89127","NA","NA","2013","NA","2027","84065","108655","111133","21382","81353","2014","mousetracking operator preview effect","0","0","0","no","false","no","1680"
"negative","undefined","1","undefined","undefined","white","no","legacy","legacy","legacy","0","relative","undefined","undefined","7","NA","0","0","0","0","0","0","0","23","23","0","15","0","no","04/24/19 11:37:24","A simple template for the mouse-tracking paradigm","yes","Experiment-TF.osexp","C:\Users\Kristen\Documents\opPreviewExperiment-master\procedure","no","mono","no","24","no","black","no","yes","1050","legacy","7","15","C:/Users/Kristen/Documents/opPreviewExperiment-master/procedure/subject-21.csv","legacy","Kafkaesque Koffka","3.2.6","mult","0","l","NA","NA","a","a","5062","NA","NA","19354","5062","2","4385","legacy","large","1024","2","48000","-16","experiment","9_7_mult_FNI.jpg","21","odd","legacy","111162","NA","89127","NA","NA","2013","NA","2027","84065","111162","116713","21382","81353","2014","mousetracking operator preview effect","0","0","0","no","false","no","1680"
"neutral","undefined","1","undefined","undefined","white","no","legacy","legacy","legacy","0","relative","undefined","undefined","8","NA","0","0","0","0","0","0","0","24","24","0","15","0","no","04/24/19 11:37:24","A simple template for the mouse-tracking paradigm","yes","Experiment-TF.osexp","C:\Users\Kristen\Documents\opPreviewExperiment-master\procedure","no","mono","no","24","no","black","no","yes","1050","legacy","8","15","C:/Users/Kristen/Documents/opPreviewExperiment-master/procedure/subject-21.csv","legacy","Kafkaesque Koffka","3.2.6","add","0","a","NA","NA","a","a","5062","NA","NA","19354","5062","2","1206","legacy","small","1024","2","48000","-16","experiment","8_2_add_true.jpg","21","odd","legacy","116741","NA","89127","NA","NA","2013","NA","2027","84065","116741","118931","21382","81353","2014","mousetracking operator preview effect","0","0","0","no","true","no","1680"
"neutral","undefined","1","undefined","undefined","white","no","legacy","legacy","legacy","0","relative","undefined","undefined","9","NA","0","0","0","0","0","0","0","25","25","0","15","0","no","04/24/19 11:37:24","A simple template for the mouse-tracking paradigm","yes","Experiment-TF.osexp","C:\Users\Kristen\Documents\opPreviewExperiment-master\procedure","no","mono","no","24","no","black","no","yes","1050","legacy","9","15","C:/Users/Kristen/Documents/opPreviewExperiment-master/procedure/subject-21.csv","legacy","Kafkaesque Koffka","3.2.6","mult","0","l","NA","NA","a","a","5062","NA","NA","19354","5062","2","2926","legacy","large","1024","2","48000","-16","experiment","6_8_mult_FNI.jpg","21","odd","legacy","118959","NA","89127","NA","NA","2013","NA","2027","84065","118959","122862","21382","81353","2014","mousetracking operator preview effect","0","0","0","no","false","no","1680"
"neutral","undefined","1","undefined","undefined","white","no","legacy","legacy","legacy","0","relative","undefined","undefined","10","NA","0","0","0","0","0","0","0","26","26","0","15","0","no","04/24/19 11:37:24","A simple template for the mouse-tracking paradigm","yes","Experiment-TF.osexp","C:\Users\Kristen\Documents\opPreviewExperiment-master\procedure","no","mono","no","24","no","black","no","yes","1050","legacy","10","15","C:/Users/Kristen/Documents/opPreviewExperiment-master/procedure/subject-21.csv","legacy","Kafkaesque Koffka","3.2.6","mult","0","l","NA","NA","a","a","5062","NA","NA","19354","5062","2","2121","legacy","large","1024","2","48000","-16","experiment","4_9_mult_FNI.jpg","21","odd","legacy","122882","NA","89127","NA","NA","2013","NA","2027","84065","122882","125980","21382","81353","2014","mousetracking operator preview effect","0","0","0","no","false","no","1680"
"negative","undefined","1","undefined","undefined","white","no","legacy","legacy","legacy","0","relative","undefined","undefined","11","NA","0","0","0","0","0","0","0","27","27","0","15","0","no","04/24/19 11:37:24","A simple template for the mouse-tracking paradigm","yes","Experiment-TF.osexp","C:\Users\Kristen\Documents\opPreviewExperiment-master\procedure","no","mono","no","24","no","black","no","yes","1050","legacy","11","15","C:/Users/Kristen/Documents/opPreviewExperiment-master/procedure/subject-21.csv","legacy","Kafkaesque Koffka","3.2.6","mult","0","l","NA","NA","a","a","5062","NA","NA","19354","5062","2","1862","legacy","small","1024","2","48000","-16","experiment","8_2_mult_FI.jpg","21","odd","legacy","125998","NA","89127","NA","NA","2013","NA","2027","84065","125998","128994","21382","81353","2014","mousetracking operator preview effect","0","0","0","no","false","no","1680"
"neutral","undefined","1","undefined","undefined","white","no","legacy","legacy","legacy","0","relative","undefined","undefined","12","NA","0","0","0","0","0","0","0","28","28","0","15","0","no","04/24/19 11:37:24","A simple template for the mouse-tracking paradigm","yes","Experiment-TF.osexp","C:\Users\Kristen\Documents\opPreviewExperiment-master\procedure","no","mono","no","24","no","black","no","yes","1050","legacy","12","15","C:/Users/Kristen/Documents/opPreviewExperiment-master/procedure/subject-21.csv","legacy","Kafkaesque Koffka","3.2.6","mult","0","a","NA","NA","a","a","5062","NA","NA","19354","5062","2","981","legacy","small","1024","2","48000","-16","experiment","2_7_mult_true.jpg","21","odd","legacy","129023","NA","89127","NA","NA","2013","NA","2027","84065","129023","130987","21382","81353","2014","mousetracking operator preview effect","0","0","0","no","true","no","1680"
"negative","undefined","1","undefined","undefined","white","no","legacy","legacy","legacy","0","relative","undefined","undefined","13","NA","0","0","0","0","0","0","0","29","29","0","15","0","no","04/24/19 11:37:24","A simple template for the mouse-tracking paradigm","yes","Experiment-TF.osexp","C:\Users\Kristen\Documents\opPreviewExperiment-master\procedure","no","mono","no","24","no","black","no","yes","1050","legacy","13","15","C:/Users/Kristen/Documents/opPreviewExperiment-master/procedure/subject-21.csv","legacy","Kafkaesque Koffka","3.2.6","add","0","a","NA","NA","a","a","5062","NA","NA","19354","5062","2","1982","legacy","large","1024","2","48000","-16","experiment","9_7_add_true.jpg","21","odd","legacy","131009","NA","89127","NA","NA","2013","NA","2027","84065","131009","134135","21382","81353","2014","mousetracking operator preview effect","0","0","0","no","true","no","1680"
"negative","undefined","1","undefined","undefined","white","no","legacy","legacy","legacy","0","relative","undefined","undefined","14","NA","0","0","0","0","0","0","0","30","30","0","15","0","no","04/24/19 11:37:24","A simple template for the mouse-tracking paradigm","yes","Experiment-TF.osexp","C:\Users\Kristen\Documents\opPreviewExperiment-master\procedure","no","mono","no","24","no","black","no","yes","1050","legacy","14","15","C:/Users/Kristen/Documents/opPreviewExperiment-master/procedure/subject-21.csv","legacy","Kafkaesque Koffka","3.2.6","add","0","l","NA","NA","a","a","5062","NA","NA","19354","5062","2","2091","legacy","large","1024","2","48000","-16","experiment","4_9_add_FNI.jpg","21","odd","legacy","134157","NA","89127","NA","NA","2013","NA","2027","84065","134157","137396","21382","81353","2014","mousetracking operator preview effect","0","0","0","no","false","no","1680"
"neutral","undefined","1","undefined","undefined","white","no","legacy","legacy","legacy","0","relative","undefined","undefined","15","NA","0","0","0","0","0","0","0","31","31","0","15","0","no","04/24/19 11:37:24","A simple template for the mouse-tracking paradigm","yes","Experiment-TF.osexp","C:\Users\Kristen\Documents\opPreviewExperiment-master\procedure","no","mono","no","24","no","black","no","yes","1050","legacy","15","15","C:/Users/Kristen/Documents/opPreviewExperiment-master/procedure/subject-21.csv","legacy","Kafkaesque Koffka","3.2.6","mult","0","a","NA","NA","a","a","5062","NA","NA","19354","5062","2","1415","legacy","small","1024","2","48000","-16","experiment","3_6_mult_true.jpg","21","odd","legacy","137425","NA","89127","NA","NA","2013","NA","2027","84065","137425","139816","21382","81353","2014","mousetracking operator preview effect","0","0","0","no","true","no","1680"
"neutral","undefined","1","undefined","undefined","white","no","legacy","legacy","legacy","0","relative","undefined","undefined","16","NA","0","0","0","0","0","0","0","32","32","0","15","0","no","04/24/19 11:37:24","A simple template for the mouse-tracking paradigm","yes","Experiment-TF.osexp","C:\Users\Kristen\Documents\opPreviewExperiment-master\procedure","no","mono","no","24","no","black","no","yes","1050","legacy","16","15","C:/Users/Kristen/Documents/opPreviewExperiment-master/procedure/subject-21.csv","legacy","Kafkaesque Koffka","3.2.6","add","0","l","NA","NA","a","a","5062","NA","NA","19354","5062","2","1271","legacy","large","1024","2","48000","-16","experiment","9_7_add_FNI.jpg","21","odd","legacy","139840","NA","89127","NA","NA","2013","NA","2027","84065","139840","142092","21382","81353","2014","mousetracking operator preview effect","0","0","0","no","false","no","1680"
"neutral","undefined","1","undefined","undefined","white","no","legacy","legacy","legacy","0","relative","undefined","undefined","17","NA","0","0","0","0","0","0","0","33","33","0","15","0","no","04/24/19 11:37:24","A simple template for the mouse-tracking paradigm","yes","Experiment-TF.osexp","C:\Users\Kristen\Documents\opPreviewExperiment-master\procedure","no","mono","no","24","no","black","no","yes","1050","legacy","17","15","C:/Users/Kristen/Documents/opPreviewExperiment-master/procedure/subject-21.csv","legacy","Kafkaesque Koffka","3.2.6","add","0","a","NA","NA","a","a","5062","NA","NA","19354","5062","2","1347","legacy","small","1024","2","48000","-16","experiment","3_6_add_true.jpg","21","odd","legacy","142117","NA","89127","NA","NA","2013","NA","2027","84065","142117","144442","21382","81353","2014","mousetracking operator preview effect","0","0","0","no","true","no","1680"
"negative","undefined","1","undefined","undefined","white","no","legacy","legacy","legacy","0","relative","undefined","undefined","18","NA","0","0","0","0","0","0","0","34","34","0","15","0","no","04/24/19 11:37:24","A simple template for the mouse-tracking paradigm","yes","Experiment-TF.osexp","C:\Users\Kristen\Documents\opPreviewExperiment-master\procedure","no","mono","no","24","no","black","no","yes","1050","legacy","18","15","C:/Users/Kristen/Documents/opPreviewExperiment-master/procedure/subject-21.csv","legacy","Kafkaesque Koffka","3.2.6","add","0","a","NA","NA","a","a","5062","NA","NA","19354","5062","2","1743","legacy","large","1024","2","48000","-16","experiment","4_9_add_true.jpg","21","odd","legacy","144463","NA","89127","NA","NA","2013","NA","2027","84065","144463","147359","21382","81353","2014","mousetracking operator preview effect","0","0","0","no","true","no","1680"
"negative","undefined","1","undefined","undefined","white","no","legacy","legacy","legacy","0","relative","undefined","undefined","19","NA","0","0","0","0","0","0","0","35","35","0","15","0","no","04/24/19 11:37:24","A simple template for the mouse-tracking paradigm","yes","Experiment-TF.osexp","C:\Users\Kristen\Documents\opPreviewExperiment-master\procedure","no","mono","no","24","no","black","no","yes","1050","legacy","19","15","C:/Users/Kristen/Documents/opPreviewExperiment-master/procedure/subject-21.csv","legacy","Kafkaesque Koffka","3.2.6","add","0","a","NA","NA","a","a","5062","NA","NA","19354","5062","2","1546","legacy","large","1024","2","48000","-16","experiment","6_8_add_true.jpg","21","odd","legacy","147373","NA","89127","NA","NA","2013","NA","2027","84065","147373","150071","21382","81353","2014","mousetracking operator preview effect","0","0","0","no","true","no","1680"
"neutral","undefined","1","undefined","undefined","white","no","legacy","legacy","legacy","0","relative","undefined","undefined","20","NA","0","0","0","0","0","0","0","36","36","0","15","0","no","04/24/19 11:37:24","A simple template for the mouse-tracking paradigm","yes","Experiment-TF.osexp","C:\Users\Kristen\Documents\opPreviewExperiment-master\procedure","no","mono","no","24","no","black","no","yes","1050","legacy","20","15","C:/Users/Kristen/Documents/opPreviewExperiment-master/procedure/subject-21.csv","legacy","Kafkaesque Koffka","3.2.6","add","0","a","NA","NA","a","a","5062","NA","NA","19354","5062","2","1634","legacy","large","1024","2","48000","-16","experiment","9_7_add_true.jpg","21","odd","legacy","150092","NA","89127","NA","NA","2013","NA","2027","84065","150092","152700","21382","81353","2014","mousetracking operator preview effect","0","0","0","no","true","no","1680"
"negative","undefined","1","undefined","undefined","white","no","legacy","legacy","legacy","0","relative","undefined","undefined","21","NA","0","0","0","0","0","0","0","37","37","0","15","0","no","04/24/19 11:37:24","A simple template for the mouse-tracking paradigm","yes","Experiment-TF.osexp","C:\Users\Kristen\Documents\opPreviewExperiment-master\procedure","no","mono","no","24","no","black","no","yes","1050","legacy","21","15","C:/Users/Kristen/Documents/opPreviewExperiment-master/procedure/subject-21.csv","legacy","Kafkaesque Koffka","3.2.6","mult","0","a","NA","NA","a","a","5062","NA","NA","19354","5062","2","1051","legacy","small","1024","2","48000","-16","experiment","5_3_mult_true.jpg","21","odd","legacy","152725","NA","89127","NA","NA","2013","NA","2027","84065","152725","154942","21382","81353","2014","mousetracking operator preview effect","0","0","0","no","true","no","1680"
"negative","undefined","1","undefined","undefined","white","no","legacy","legacy","legacy","0","relative","undefined","undefined","22","NA","0","0","0","0","0","0","0","38","38","0","15","0","no","04/24/19 11:37:24","A simple template for the mouse-tracking paradigm","yes","Experiment-TF.osexp","C:\Users\Kristen\Documents\opPreviewExperiment-master\procedure","no","mono","no","24","no","black","no","yes","1050","legacy","22","15","C:/Users/Kristen/Documents/opPreviewExperiment-master/procedure/subject-21.csv","legacy","Kafkaesque Koffka","3.2.6","mult","0","a","NA","NA","a","a","5062","NA","NA","19354","5062","2","2634","legacy","large","1024","2","48000","-16","experiment","6_8_mult_true.jpg","21","odd","legacy","154971","NA","89127","NA","NA","2013","NA","2027","84065","154971","158759","21382","81353","2014","mousetracking operator preview effect","0","0","0","no","true","no","1680"
"negative","undefined","1","undefined","undefined","white","no","legacy","legacy","legacy","0","relative","undefined","undefined","23","NA","0","0","0","0","0","0","0","39","39","0","15","0","no","04/24/19 11:37:24","A simple template for the mouse-tracking paradigm","yes","Experiment-TF.osexp","C:\Users\Kristen\Documents\opPreviewExperiment-master\procedure","no","mono","no","24","no","black","no","yes","1050","legacy","23","15","C:/Users/Kristen/Documents/opPreviewExperiment-master/procedure/subject-21.csv","legacy","Kafkaesque Koffka","3.2.6","add","0","a","NA","NA","a","a","5062","NA","NA","19354","5062","2","700","legacy","small","1024","2","48000","-16","experiment","8_2_add_true.jpg","21","odd","legacy","158785","NA","89127","NA","NA","2013","NA","2027","84065","158785","160642","21382","81353","2014","mousetracking operator preview effect","0","0","0","no","true","no","1680"
"neutral","undefined","1","undefined","undefined","white","no","legacy","legacy","legacy","0","relative","undefined","undefined","24","NA","0","0","0","0","0","0","0","40","40","0","15","0","no","04/24/19 11:37:24","A simple template for the mouse-tracking paradigm","yes","Experiment-TF.osexp","C:\Users\Kristen\Documents\opPreviewExperiment-master\procedure","no","mono","no","24","no","black","no","yes","1050","legacy","24","15","C:/Users/Kristen/Documents/opPreviewExperiment-master/procedure/subject-21.csv","legacy","Kafkaesque Koffka","3.2.6","add","0","l","NA","NA","a","a","5062","NA","NA","19354","5062","2","910","legacy","large","1024","2","48000","-16","experiment","6_8_add_FI.jpg","21","odd","legacy","160672","NA","89127","NA","NA","2013","NA","2027","84065","160672","162560","21382","81353","2014","mousetracking operator preview effect","0","0","0","no","false","no","1680"
"neutral","undefined","1","undefined","undefined","white","no","legacy","legacy","legacy","0","relative","undefined","undefined","25","NA","0","0","0","0","0","0","0","41","41","0","15","0","no","04/24/19 11:37:24","A simple template for the mouse-tracking paradigm","yes","Experiment-TF.osexp","C:\Users\Kristen\Documents\opPreviewExperiment-master\procedure","no","mono","no","24","no","black","no","yes","1050","legacy","25","15","C:/Users/Kristen/Documents/opPreviewExperiment-master/procedure/subject-21.csv","legacy","Kafkaesque Koffka","3.2.6","add","0","l","NA","NA","a","a","5062","NA","NA","19354","5062","2","2244","legacy","small","1024","2","48000","-16","experiment","2_7_add_FNI.jpg","21","odd","legacy","162587","NA","89127","NA","NA","2013","NA","2027","84065","162587","165805","21382","81353","2014","mousetracking operator preview effect","0","0","0","no","false","no","1680"
"neutral","undefined","1","undefined","undefined","white","no","legacy","legacy","legacy","0","relative","undefined","undefined","26","NA","0","0","0","0","0","0","0","42","42","0","15","0","no","04/24/19 11:37:24","A simple template for the mouse-tracking paradigm","yes","Experiment-TF.osexp","C:\Users\Kristen\Documents\opPreviewExperiment-master\procedure","no","mono","no","24","no","black","no","yes","1050","legacy","26","15","C:/Users/Kristen/Documents/opPreviewExperiment-master/procedure/subject-21.csv","legacy","Kafkaesque Koffka","3.2.6","add","0","l","NA","NA","a","a","5062","NA","NA","19354","5062","2","1095","legacy","small","1024","2","48000","-16","experiment","8_2_add_FNI.jpg","21","odd","legacy","165835","NA","89127","NA","NA","2013","NA","2027","84065","165836","167904","21382","81353","2014","mousetracking operator preview effect","0","0","0","no","false","no","1680"
"negative","undefined","1","undefined","undefined","white","no","legacy","legacy","legacy","0","relative","undefined","undefined","27","NA","0","0","0","0","0","0","0","43","43","0","15","0","no","04/24/19 11:37:24","A simple template for the mouse-tracking paradigm","yes","Experiment-TF.osexp","C:\Users\Kristen\Documents\opPreviewExperiment-master\procedure","no","mono","no","24","no","black","no","yes","1050","legacy","27","15","C:/Users/Kristen/Documents/opPreviewExperiment-master/procedure/subject-21.csv","legacy","Kafkaesque Koffka","3.2.6","mult","0","l","NA","NA","a","a","5062","NA","NA","19354","5062","2","1957","legacy","large","1024","2","48000","-16","experiment","6_8_mult_FI.jpg","21","odd","legacy","167923","NA","89127","NA","NA","2013","NA","2027","84065","167923","171039","21382","81353","2014","mousetracking operator preview effect","0","0","0","no","false","no","1680"
"neutral","undefined","1","undefined","undefined","white","no","legacy","legacy","legacy","0","relative","undefined","undefined","28","NA","0","0","0","0","0","0","0","44","44","0","15","0","no","04/24/19 11:37:24","A simple template for the mouse-tracking paradigm","yes","Experiment-TF.osexp","C:\Users\Kristen\Documents\opPreviewExperiment-master\procedure","no","mono","no","24","no","black","no","yes","1050","legacy","28","15","C:/Users/Kristen/Documents/opPreviewExperiment-master/procedure/subject-21.csv","legacy","Kafkaesque Koffka","3.2.6","mult","0","a","NA","NA","a","a","5062","NA","NA","19354","5062","2","1100","legacy","large","1024","2","48000","-16","experiment","4_9_mult_true.jpg","21","odd","legacy","171064","NA","89127","NA","NA","2013","NA","2027","84065","171064","173142","21382","81353","2014","mousetracking operator preview effect","0","0","0","no","true","no","1680"
"negative","undefined","1","undefined","undefined","white","no","legacy","legacy","legacy","0","relative","undefined","undefined","29","NA","0","0","0","0","0","0","0","45","45","0","15","0","no","04/24/19 11:37:24","A simple template for the mouse-tracking paradigm","yes","Experiment-TF.osexp","C:\Users\Kristen\Documents\opPreviewExperiment-master\procedure","no","mono","no","24","no","black","no","yes","1050","legacy","29","15","C:/Users/Kristen/Documents/opPreviewExperiment-master/procedure/subject-21.csv","legacy","Kafkaesque Koffka","3.2.6","mult","0","a","NA","NA","a","a","5062","NA","NA","19354","5062","2","1043","legacy","large","1024","2","48000","-16","experiment","6_8_mult_true.jpg","21","odd","legacy","173312","NA","89127","NA","NA","2013","NA","2027","84065","173312","175509","21382","81353","2014","mousetracking operator preview effect","0","0","0","no","true","no","1680"
"negative","undefined","1","undefined","undefined","white","no","legacy","legacy","legacy","0","relative","undefined","undefined","30","NA","0","0","0","0","0","0","0","46","46","0","15","0","no","04/24/19 11:37:24","A simple template for the mouse-tracking paradigm","yes","Experiment-TF.osexp","C:\Users\Kristen\Documents\opPreviewExperiment-master\procedure","no","mono","no","24","no","black","no","yes","1050","legacy","30","15","C:/Users/Kristen/Documents/opPreviewExperiment-master/procedure/subject-21.csv","legacy","Kafkaesque Koffka","3.2.6","add","0","l","NA","NA","a","a","5062","NA","NA","19354","5062","2","3955","legacy","small","1024","2","48000","-16","experiment","3_6_add_FI.jpg","21","odd","legacy","175529","NA","89127","NA","NA","2013","NA","2027","84065","175529","180605","21382","81353","2014","mousetracking operator preview effect","0","0","0","no","false","no","1680"
"neutral","undefined","1","undefined","undefined","white","no","legacy","legacy","legacy","0","relative","undefined","undefined","31","NA","0","0","0","0","0","0","0","47","47","0","15","0","no","04/24/19 11:37:24","A simple template for the mouse-tracking paradigm","yes","Experiment-TF.osexp","C:\Users\Kristen\Documents\opPreviewExperiment-master\procedure","no","mono","no","24","no","black","no","yes","1050","legacy","31","15","C:/Users/Kristen/Documents/opPreviewExperiment-master/procedure/subject-21.csv","legacy","Kafkaesque Koffka","3.2.6","add","0","l","NA","NA","a","a","5062","NA","NA","19354","5062","2","1231","legacy","large","1024","2","48000","-16","experiment","9_7_add_FI.jpg","21","odd","legacy","180625","NA","89127","NA","NA","2013","NA","2027","84065","180625","182831","21382","81353","2014","mousetracking operator preview effect","0","0","0","no","false","no","1680"
"neutral","undefined","1","undefined","undefined","white","no","legacy","legacy","legacy","0","relative","undefined","undefined","32","NA","0","0","0","0","0","0","0","48","48","0","15","0","no","04/24/19 11:37:24","A simple template for the mouse-tracking paradigm","yes","Experiment-TF.osexp","C:\Users\Kristen\Documents\opPreviewExperiment-master\procedure","no","mono","no","24","no","black","no","yes","1050","legacy","32","15","C:/Users/Kristen/Documents/opPreviewExperiment-master/procedure/subject-21.csv","legacy","Kafkaesque Koffka","3.2.6","add","0","l","NA","NA","a","a","5062","NA","NA","19354","5062","2","1008","legacy","large","1024","2","48000","-16","experiment","8_4_add_FI.jpg","21","odd","legacy","182844","NA","89127","NA","NA","2013","NA","2027","84065","182844","184818","21382","81353","2014","mousetracking operator preview effect","0","0","0","no","false","no","1680"
"neutral","undefined","1","undefined","undefined","white","no","legacy","legacy","legacy","0","relative","undefined","undefined","33","NA","0","0","0","0","0","0","0","49","49","0","15","0","no","04/24/19 11:37:24","A simple template for the mouse-tracking paradigm","yes","Experiment-TF.osexp","C:\Users\Kristen\Documents\opPreviewExperiment-master\procedure","no","mono","no","24","no","black","no","yes","1050","legacy","33","15","C:/Users/Kristen/Documents/opPreviewExperiment-master/procedure/subject-21.csv","legacy","Kafkaesque Koffka","3.2.6","mult","0","a","NA","NA","a","a","5062","NA","NA","19354","5062","2","2532","legacy","large","1024","2","48000","-16","experiment","8_4_mult_true.jpg","21","odd","legacy","184846","NA","89127","NA","NA","2013","NA","2027","84065","184846","188349","21382","81353","2014","mousetracking operator preview effect","0","0","0","no","true","no","1680"
"neutral","undefined","1","undefined","undefined","white","no","legacy","legacy","legacy","0","relative","undefined","undefined","34","NA","0","0","0","0","0","0","0","50","50","0","15","0","no","04/24/19 11:37:24","A simple template for the mouse-tracking paradigm","yes","Experiment-TF.osexp","C:\Users\Kristen\Documents\opPreviewExperiment-master\procedure","no","mono","no","24","no","black","no","yes","1050","legacy","34","15","C:/Users/Kristen/Documents/opPreviewExperiment-master/procedure/subject-21.csv","legacy","Kafkaesque Koffka","3.2.6","mult","0","l","NA","NA","a","a","5062","NA","NA","19354","5062","2","2152","legacy","small","1024","2","48000","-16","experiment","3_6_mult_FNI.jpg","21","odd","legacy","188373","NA","89127","NA","NA","2013","NA","2027","84065","188373","191497","21382","81353","2014","mousetracking operator preview effect","0","0","0","no","false","no","1680"
"neutral","undefined","1","undefined","undefined","white","no","legacy","legacy","legacy","0","relative","undefined","undefined","35","NA","0","0","0","0","0","0","0","51","51","0","15","0","no","04/24/19 11:37:24","A simple template for the mouse-tracking paradigm","yes","Experiment-TF.osexp","C:\Users\Kristen\Documents\opPreviewExperiment-master\procedure","no","mono","no","24","no","black","no","yes","1050","legacy","35","15","C:/Users/Kristen/Documents/opPreviewExperiment-master/procedure/subject-21.csv","legacy","Kafkaesque Koffka","3.2.6","add","0","l","NA","NA","a","a","5062","NA","NA","19354","5062","2","1624","legacy","large","1024","2","48000","-16","experiment","4_9_add_FI.jpg","21","odd","legacy","191519","NA","89127","NA","NA","2013","NA","2027","84065","191519","194117","21382","81353","2014","mousetracking operator preview effect","0","0","0","no","false","no","1680"
"negative","undefined","1","undefined","undefined","white","no","legacy","legacy","legacy","0","relative","undefined","undefined","36","NA","0","0","0","0","0","0","0","52","52","0","15","0","no","04/24/19 11:37:24","A simple template for the mouse-tracking paradigm","yes","Experiment-TF.osexp","C:\Users\Kristen\Documents\opPreviewExperiment-master\procedure","no","mono","no","24","no","black","no","yes","1050","legacy","36","15","C:/Users/Kristen/Documents/opPreviewExperiment-master/procedure/subject-21.csv","legacy","Kafkaesque Koffka","3.2.6","add","0","l","NA","NA","a","a","5062","NA","NA","19354","5062","2","1467","legacy","small","1024","2","48000","-16","experiment","3_6_add_FNI.jpg","21","odd","legacy","194148","NA","89127","NA","NA","2013","NA","2027","84065","194148","196753","21382","81353","2014","mousetracking operator preview effect","0","0","0","no","false","no","1680"
"neutral","undefined","1","undefined","undefined","white","no","legacy","legacy","legacy","0","relative","undefined","undefined","37","NA","0","0","0","0","0","0","0","53","53","0","15","0","no","04/24/19 11:37:24","A simple template for the mouse-tracking paradigm","yes","Experiment-TF.osexp","C:\Users\Kristen\Documents\opPreviewExperiment-master\procedure","no","mono","no","24","no","black","no","yes","1050","legacy","37","15","C:/Users/Kristen/Documents/opPreviewExperiment-master/procedure/subject-21.csv","legacy","Kafkaesque Koffka","3.2.6","mult","0","l","NA","NA","a","a","5062","NA","NA","19354","5062","2","1475","legacy","small","1024","2","48000","-16","experiment","8_2_mult_FI.jpg","21","odd","legacy","196776","NA","89127","NA","NA","2013","NA","2027","84065","196776","199223","21382","81353","2014","mousetracking operator preview effect","0","0","0","no","false","no","1680"
"negative","undefined","1","undefined","undefined","white","no","legacy","legacy","legacy","0","relative","undefined","undefined","38","NA","0","0","0","0","0","0","0","54","54","0","15","0","no","04/24/19 11:37:24","A simple template for the mouse-tracking paradigm","yes","Experiment-TF.osexp","C:\Users\Kristen\Documents\opPreviewExperiment-master\procedure","no","mono","no","24","no","black","no","yes","1050","legacy","38","15","C:/Users/Kristen/Documents/opPreviewExperiment-master/procedure/subject-21.csv","legacy","Kafkaesque Koffka","3.2.6","add","0","a","NA","NA","a","a","5062","NA","NA","19354","5062","2","750","legacy","small","1024","2","48000","-16","experiment","3_6_add_true.jpg","21","odd","legacy","199244","NA","89127","NA","NA","2013","NA","2027","84065","199244","201134","21382","81353","2014","mousetracking operator preview effect","0","0","0","no","true","no","1680"
"negative","undefined","1","undefined","undefined","white","no","legacy","legacy","legacy","0","relative","undefined","undefined","39","NA","0","0","0","0","0","0","0","55","55","0","15","0","no","04/24/19 11:37:24","A simple template for the mouse-tracking paradigm","yes","Experiment-TF.osexp","C:\Users\Kristen\Documents\opPreviewExperiment-master\procedure","no","mono","no","24","no","black","no","yes","1050","legacy","39","15","C:/Users/Kristen/Documents/opPreviewExperiment-master/procedure/subject-21.csv","legacy","Kafkaesque Koffka","3.2.6","mult","0","l","NA","NA","a","a","5062","NA","NA","19354","5062","2","1722","legacy","large","1024","2","48000","-16","experiment","4_9_mult_FNI.jpg","21","odd","legacy","201158","NA","89127","NA","NA","2013","NA","2027","84065","201158","204048","21382","81353","2014","mousetracking operator preview effect","0","0","0","no","false","no","1680"
"neutral","undefined","1","undefined","undefined","white","no","legacy","legacy","legacy","0","relative","undefined","undefined","40","NA","0","0","0","0","0","0","0","56","56","0","15","0","no","04/24/19 11:37:24","A simple template for the mouse-tracking paradigm","yes","Experiment-TF.osexp","C:\Users\Kristen\Documents\opPreviewExperiment-master\procedure","no","mono","no","24","no","black","no","yes","1050","legacy","40","15","C:/Users/Kristen/Documents/opPreviewExperiment-master/procedure/subject-21.csv","legacy","Kafkaesque Koffka","3.2.6","mult","0","a","NA","NA","a","a","5062","NA","NA","19354","5062","2","771","legacy","small","1024","2","48000","-16","experiment","8_2_mult_true.jpg","21","odd","legacy","204069","NA","89127","NA","NA","2013","NA","2027","84065","204069","205817","21382","81353","2014","mousetracking operator preview effect","0","0","0","no","true","no","1680"
"negative","undefined","1","undefined","undefined","white","no","legacy","legacy","legacy","0","relative","undefined","undefined","41","NA","0","0","0","0","0","0","0","57","57","0","15","0","no","04/24/19 11:37:24","A simple template for the mouse-tracking paradigm","yes","Experiment-TF.osexp","C:\Users\Kristen\Documents\opPreviewExperiment-master\procedure","no","mono","no","24","no","black","no","yes","1050","legacy","41","15","C:/Users/Kristen/Documents/opPreviewExperiment-master/procedure/subject-21.csv","legacy","Kafkaesque Koffka","3.2.6","add","0","a","NA","NA","a","a","5062","NA","NA","19354","5062","2","880","legacy","large","1024","2","48000","-16","experiment","6_8_add_true.jpg","21","odd","legacy","205838","NA","89127","NA","NA","2013","NA","2027","84065","205838","207834","21382","81353","2014","mousetracking operator preview effect","0","0","0","no","true","no","1680"
"neutral","undefined","1","undefined","undefined","white","no","legacy","legacy","legacy","0","relative","undefined","undefined","42","NA","0","0","0","0","0","0","0","58","58","0","15","0","no","04/24/19 11:37:24","A simple template for the mouse-tracking paradigm","yes","Experiment-TF.osexp","C:\Users\Kristen\Documents\opPreviewExperiment-master\procedure","no","mono","no","24","no","black","no","yes","1050","legacy","42","15","C:/Users/Kristen/Documents/opPreviewExperiment-master/procedure/subject-21.csv","legacy","Kafkaesque Koffka","3.2.6","mult","0","l","NA","NA","a","a","5062","NA","NA","19354","5062","2","1100","legacy","large","1024","2","48000","-16","experiment","8_4_mult_FNI.jpg","21","odd","legacy","207849","NA","89127","NA","NA","2013","NA","2027","84065","207849","209934","21382","81353","2014","mousetracking operator preview effect","0","0","0","no","false","no","1680"
"negative","undefined","1","undefined","undefined","white","no","legacy","legacy","legacy","0","relative","undefined","undefined","43","NA","0","0","0","0","0","0","0","59","59","0","15","0","no","04/24/19 11:37:24","A simple template for the mouse-tracking paradigm","yes","Experiment-TF.osexp","C:\Users\Kristen\Documents\opPreviewExperiment-master\procedure","no","mono","no","24","no","black","no","yes","1050","legacy","43","15","C:/Users/Kristen/Documents/opPreviewExperiment-master/procedure/subject-21.csv","legacy","Kafkaesque Koffka","3.2.6","mult","0","l","NA","NA","a","a","5062","NA","NA","19354","5062","2","1074","legacy","large","1024","2","48000","-16","experiment","8_4_mult_FI.jpg","21","odd","legacy","209949","NA","89127","NA","NA","2013","NA","2027","84065","209949","212146","21382","81353","2014","mousetracking operator preview effect","0","0","0","no","false","no","1680"
"negative","undefined","1","undefined","undefined","white","no","legacy","legacy","legacy","0","relative","undefined","undefined","44","NA","0","0","0","0","0","0","0","60","60","0","15","0","no","04/24/19 11:37:24","A simple template for the mouse-tracking paradigm","yes","Experiment-TF.osexp","C:\Users\Kristen\Documents\opPreviewExperiment-master\procedure","no","mono","no","24","no","black","no","yes","1050","legacy","44","15","C:/Users/Kristen/Documents/opPreviewExperiment-master/procedure/subject-21.csv","legacy","Kafkaesque Koffka","3.2.6","mult","0","a","NA","NA","a","a","5062","NA","NA","19354","5062","2","856","legacy","small","1024","2","48000","-16","experiment","8_2_mult_true.jpg","21","odd","legacy","212177","NA","89127","NA","NA","2013","NA","2027","84065","212177","214181","21382","81353","2014","mousetracking operator preview effect","0","0","0","no","true","no","1680"
"negative","undefined","1","undefined","undefined","white","no","legacy","legacy","legacy","0","relative","undefined","undefined","45","NA","0","0","0","0","0","0","0","61","61","0","15","0","no","04/24/19 11:37:24","A simple template for the mouse-tracking paradigm","yes","Experiment-TF.osexp","C:\Users\Kristen\Documents\opPreviewExperiment-master\procedure","no","mono","no","24","no","black","no","yes","1050","legacy","45","15","C:/Users/Kristen/Documents/opPreviewExperiment-master/procedure/subject-21.csv","legacy","Kafkaesque Koffka","3.2.6","mult","0","l","NA","NA","a","a","5062","NA","NA","19354","5062","2","1019","legacy","small","1024","2","48000","-16","experiment","2_7_mult_FNI.jpg","21","odd","legacy","214206","NA","89127","NA","NA","2013","NA","2027","84065","214206","216364","21382","81353","2014","mousetracking operator preview effect","0","0","0","no","false","no","1680"
"negative","undefined","1","undefined","undefined","white","no","legacy","legacy","legacy","0","relative","undefined","undefined","46","NA","0","0","0","0","0","0","0","62","62","0","15","0","no","04/24/19 11:37:24","A simple template for the mouse-tracking paradigm","yes","Experiment-TF.osexp","C:\Users\Kristen\Documents\opPreviewExperiment-master\procedure","no","mono","no","24","no","black","no","yes","1050","legacy","46","15","C:/Users/Kristen/Documents/opPreviewExperiment-master/procedure/subject-21.csv","legacy","Kafkaesque Koffka","3.2.6","mult","0","l","NA","NA","a","a","5062","NA","NA","19354","5062","2","1093","legacy","large","1024","2","48000","-16","experiment","9_7_mult_FI.jpg","21","odd","legacy","216385","NA","89127","NA","NA","2013","NA","2027","84065","216386","218615","21382","81353","2014","mousetracking operator preview effect","0","0","0","no","false","no","1680"
"neutral","undefined","0","undefined","undefined","white","no","legacy","legacy","legacy","0","relative","undefined","undefined","47","NA","0","0","0","0","0","0","0","63","63","0","15","0","no","04/24/19 11:37:24","A simple template for the mouse-tracking paradigm","yes","Experiment-TF.osexp","C:\Users\Kristen\Documents\opPreviewExperiment-master\procedure","no","mono","no","24","no","black","no","yes","1050","legacy","47","15","C:/Users/Kristen/Documents/opPreviewExperiment-master/procedure/subject-21.csv","legacy","Kafkaesque Koffka","3.2.6","mult","0","l","NA","NA","a","a","5062","NA","NA","19354","5062","2","771","legacy","large","1024","2","48000","-16","experiment","6_8_mult_true.jpg","21","odd","legacy","218636","NA","89127","NA","NA","2013","NA","2027","84065","218636","221404","21382","81353","2014","mousetracking operator preview effect","0","0","0","no","true","no","1680"
"negative","undefined","1","undefined","undefined","white","no","legacy","legacy","legacy","0","relative","undefined","undefined","48","NA","0","0","0","0","0","0","0","64","64","0","15","0","no","04/24/19 11:37:24","A simple template for the mouse-tracking paradigm","yes","Experiment-TF.osexp","C:\Users\Kristen\Documents\opPreviewExperiment-master\procedure","no","mono","no","24","no","black","no","yes","1050","legacy","48","15","C:/Users/Kristen/Documents/opPreviewExperiment-master/procedure/subject-21.csv","legacy","Kafkaesque Koffka","3.2.6","add","0","l","NA","NA","a","a","5062","NA","NA","19354","5062","2","3068","legacy","small","1024","2","48000","-16","experiment","5_3_add_FI.jpg","21","odd","legacy","221446","NA","89127","NA","NA","2013","NA","2027","84065","221446","225642","21382","81353","2014","mousetracking operator preview effect","0","0","0","no","false","no","1680"
"negative","undefined","1","undefined","undefined","white","no","legacy","legacy","legacy","0","relative","undefined","undefined","49","NA","0","0","0","0","0","0","0","65","65","0","15","0","no","04/24/19 11:37:24","A simple template for the mouse-tracking paradigm","yes","Experiment-TF.osexp","C:\Users\Kristen\Documents\opPreviewExperiment-master\procedure","no","mono","no","24","no","black","no","yes","1050","legacy","49","15","C:/Users/Kristen/Documents/opPreviewExperiment-master/procedure/subject-21.csv","legacy","Kafkaesque Koffka","3.2.6","mult","0","a","NA","NA","a","a","5062","NA","NA","19354","5062","2","941","legacy","small","1024","2","48000","-16","experiment","5_3_mult_true.jpg","21","odd","legacy","225663","NA","89127","NA","NA","2013","NA","2027","84065","225663","227749","21382","81353","2014","mousetracking operator preview effect","0","0","0","no","true","no","1680"
"neutral","undefined","1","undefined","undefined","white","no","legacy","legacy","legacy","0","relative","undefined","undefined","50","NA","0","0","0","0","0","0","0","66","66","0","15","0","no","04/24/19 11:37:24","A simple template for the mouse-tracking paradigm","yes","Experiment-TF.osexp","C:\Users\Kristen\Documents\opPreviewExperiment-master\procedure","no","mono","no","24","no","black","no","yes","1050","legacy","50","15","C:/Users/Kristen/Documents/opPreviewExperiment-master/procedure/subject-21.csv","legacy","Kafkaesque Koffka","3.2.6","mult","0","l","NA","NA","a","a","5062","NA","NA","19354","5062","2","962","legacy","small","1024","2","48000","-16","experiment","5_3_mult_FI.jpg","21","odd","legacy","227771","NA","89127","NA","NA","2013","NA","2027","84065","227771","229684","21382","81353","2014","mousetracking operator preview effect","0","0","0","no","false","no","1680"
"neutral","undefined","1","undefined","undefined","white","no","legacy","legacy","legacy","0","relative","undefined","undefined","51","NA","0","0","0","0","0","0","0","67","67","0","15","0","no","04/24/19 11:37:24","A simple template for the mouse-tracking paradigm","yes","Experiment-TF.osexp","C:\Users\Kristen\Documents\opPreviewExperiment-master\procedure","no","mono","no","24","no","black","no","yes","1050","legacy","51","15","C:/Users/Kristen/Documents/opPreviewExperiment-master/procedure/subject-21.csv","legacy","Kafkaesque Koffka","3.2.6","add","0","a","NA","NA","a","a","5062","NA","NA","19354","5062","2","2200","legacy","small","1024","2","48000","-16","experiment","8_2_add_true.jpg","21","odd","legacy","229712","NA","89127","NA","NA","2013","NA","2027","84065","229712","232893","21382","81353","2014","mousetracking operator preview effect","0","0","0","no","true","no","1680"
"negative","undefined","1","undefined","undefined","white","no","legacy","legacy","legacy","0","relative","undefined","undefined","52","NA","0","0","0","0","0","0","0","68","68","0","15","0","no","04/24/19 11:37:24","A simple template for the mouse-tracking paradigm","yes","Experiment-TF.osexp","C:\Users\Kristen\Documents\opPreviewExperiment-master\procedure","no","mono","no","24","no","black","no","yes","1050","legacy","52","15","C:/Users/Kristen/Documents/opPreviewExperiment-master/procedure/subject-21.csv","legacy","Kafkaesque Koffka","3.2.6","mult","0","l","NA","NA","a","a","5062","NA","NA","19354","5062","2","1180","legacy","small","1024","2","48000","-16","experiment","2_7_mult_FI.jpg","21","odd","legacy","232910","NA","89127","NA","NA","2013","NA","2027","84065","232910","235253","21382","81353","2014","mousetracking operator preview effect","0","0","0","no","false","no","1680"
"negative","undefined","1","undefined","undefined","white","no","legacy","legacy","legacy","0","relative","undefined","undefined","53","NA","0","0","0","0","0","0","0","69","69","0","15","0","no","04/24/19 11:37:24","A simple template for the mouse-tracking paradigm","yes","Experiment-TF.osexp","C:\Users\Kristen\Documents\opPreviewExperiment-master\procedure","no","mono","no","24","no","black","no","yes","1050","legacy","53","15","C:/Users/Kristen/Documents/opPreviewExperiment-master/procedure/subject-21.csv","legacy","Kafkaesque Koffka","3.2.6","add","0","a","NA","NA","a","a","5062","NA","NA","19354","5062","2","2655","legacy","large","1024","2","48000","-16","experiment","9_7_add_true.jpg","21","odd","legacy","235273","NA","89127","NA","NA","2013","NA","2027","84065","235273","239084","21382","81353","2014","mousetracking operator preview effect","0","0","0","no","true","no","1680"
"neutral","undefined","1","undefined","undefined","white","no","legacy","legacy","legacy","0","relative","undefined","undefined","54","NA","0","0","0","0","0","0","0","70","70","0","15","0","no","04/24/19 11:37:24","A simple template for the mouse-tracking paradigm","yes","Experiment-TF.osexp","C:\Users\Kristen\Documents\opPreviewExperiment-master\procedure","no","mono","no","24","no","black","no","yes","1050","legacy","54","15","C:/Users/Kristen/Documents/opPreviewExperiment-master/procedure/subject-21.csv","legacy","Kafkaesque Koffka","3.2.6","add","0","a","NA","NA","a","a","5062","NA","NA","19354","5062","2","1113","legacy","large","1024","2","48000","-16","experiment","9_7_add_true.jpg","21","odd","legacy","239106","NA","89127","NA","NA","2013","NA","2027","84065","239106","241176","21382","81353","2014","mousetracking operator preview effect","0","0","0","no","true","no","1680"
"negative","undefined","1","undefined","undefined","white","no","legacy","legacy","legacy","0","relative","undefined","undefined","55","NA","0","0","0","0","0","0","0","71","71","0","15","0","no","04/24/19 11:37:24","A simple template for the mouse-tracking paradigm","yes","Experiment-TF.osexp","C:\Users\Kristen\Documents\opPreviewExperiment-master\procedure","no","mono","no","24","no","black","no","yes","1050","legacy","55","15","C:/Users/Kristen/Documents/opPreviewExperiment-master/procedure/subject-21.csv","legacy","Kafkaesque Koffka","3.2.6","add","0","a","NA","NA","a","a","5062","NA","NA","19354","5062","2","1055","legacy","small","1024","2","48000","-16","experiment","2_7_add_true.jpg","21","odd","legacy","241198","NA","89127","NA","NA","2013","NA","2027","84065","241198","243393","21382","81353","2014","mousetracking operator preview effect","0","0","0","no","true","no","1680"
"negative","undefined","1","undefined","undefined","white","no","legacy","legacy","legacy","0","relative","undefined","undefined","56","NA","0","0","0","0","0","0","0","72","72","0","15","0","no","04/24/19 11:37:24","A simple template for the mouse-tracking paradigm","yes","Experiment-TF.osexp","C:\Users\Kristen\Documents\opPreviewExperiment-master\procedure","no","mono","no","24","no","black","no","yes","1050","legacy","56","15","C:/Users/Kristen/Documents/opPreviewExperiment-master/procedure/subject-21.csv","legacy","Kafkaesque Koffka","3.2.6","add","0","l","NA","NA","a","a","5062","NA","NA","19354","5062","2","762","legacy","small","1024","2","48000","-16","experiment","8_2_add_FI.jpg","21","odd","legacy","243418","NA","89127","NA","NA","2013","NA","2027","84065","243418","245333","21382","81353","2014","mousetracking operator preview effect","0","0","0","no","false","no","1680"
"negative","undefined","1","undefined","undefined","white","no","legacy","legacy","legacy","0","relative","undefined","undefined","57","NA","0","0","0","0","0","0","0","73","73","0","15","0","no","04/24/19 11:37:24","A simple template for the mouse-tracking paradigm","yes","Experiment-TF.osexp","C:\Users\Kristen\Documents\opPreviewExperiment-master\procedure","no","mono","no","24","no","black","no","yes","1050","legacy","57","15","C:/Users/Kristen/Documents/opPreviewExperiment-master/procedure/subject-21.csv","legacy","Kafkaesque Koffka","3.2.6","mult","0","a","NA","NA","a","a","5062","NA","NA","19354","5062","2","965","legacy","small","1024","2","48000","-16","experiment","3_6_mult_true.jpg","21","odd","legacy","245359","NA","89127","NA","NA","2013","NA","2027","84065","245359","247454","21382","81353","2014","mousetracking operator preview effect","0","0","0","no","true","no","1680"
"neutral","undefined","1","undefined","undefined","white","no","legacy","legacy","legacy","0","relative","undefined","undefined","58","NA","0","0","0","0","0","0","0","74","74","0","15","0","no","04/24/19 11:37:24","A simple template for the mouse-tracking paradigm","yes","Experiment-TF.osexp","C:\Users\Kristen\Documents\opPreviewExperiment-master\procedure","no","mono","no","24","no","black","no","yes","1050","legacy","58","15","C:/Users/Kristen/Documents/opPreviewExperiment-master/procedure/subject-21.csv","legacy","Kafkaesque Koffka","3.2.6","mult","0","a","NA","NA","a","a","5062","NA","NA","19354","5062","2","1133","legacy","large","1024","2","48000","-16","experiment","8_4_mult_true.jpg","21","odd","legacy","247474","NA","89127","NA","NA","2013","NA","2027","84065","247474","249587","21382","81353","2014","mousetracking operator preview effect","0","0","0","no","true","no","1680"
"negative","undefined","0","undefined","undefined","white","no","legacy","legacy","legacy","0","relative","undefined","undefined","59","NA","0","0","0","0","0","0","0","75","75","0","15","0","no","04/24/19 11:37:24","A simple template for the mouse-tracking paradigm","yes","Experiment-TF.osexp","C:\Users\Kristen\Documents\opPreviewExperiment-master\procedure","no","mono","no","24","no","black","no","yes","1050","legacy","59","15","C:/Users/Kristen/Documents/opPreviewExperiment-master/procedure/subject-21.csv","legacy","Kafkaesque Koffka","3.2.6","add","0","l","NA","NA","a","a","5062","NA","NA","19354","5062","2","827","legacy","small","1024","2","48000","-16","experiment","5_3_add_true.jpg","21","odd","legacy","249609","NA","89127","NA","NA","2013","NA","2027","84065","249609","252616","21382","81353","2014","mousetracking operator preview effect","0","0","0","no","true","no","1680"
"negative","undefined","1","undefined","undefined","white","no","legacy","legacy","legacy","0","relative","undefined","undefined","60","NA","0","0","0","0","0","0","0","76","76","0","15","0","no","04/24/19 11:37:24","A simple template for the mouse-tracking paradigm","yes","Experiment-TF.osexp","C:\Users\Kristen\Documents\opPreviewExperiment-master\procedure","no","mono","no","24","no","black","no","yes","1050","legacy","60","15","C:/Users/Kristen/Documents/opPreviewExperiment-master/procedure/subject-21.csv","legacy","Kafkaesque Koffka","3.2.6","mult","0","a","NA","NA","a","a","5062","NA","NA","19354","5062","2","2612","legacy","small","1024","2","48000","-16","experiment","3_6_mult_true.jpg","21","odd","legacy","252636","NA","89127","NA","NA","2013","NA","2027","84065","252636","256380","21382","81353","2014","mousetracking operator preview effect","0","0","0","no","true","no","1680"
"neutral","undefined","1","undefined","undefined","white","no","legacy","legacy","legacy","0","relative","undefined","undefined","61","NA","0","0","0","0","0","0","0","77","77","0","15","0","no","04/24/19 11:37:24","A simple template for the mouse-tracking paradigm","yes","Experiment-TF.osexp","C:\Users\Kristen\Documents\opPreviewExperiment-master\procedure","no","mono","no","24","no","black","no","yes","1050","legacy","61","15","C:/Users/Kristen/Documents/opPreviewExperiment-master/procedure/subject-21.csv","legacy","Kafkaesque Koffka","3.2.6","add","0","l","NA","NA","a","a","5062","NA","NA","19354","5062","2","2570","legacy","large","1024","2","48000","-16","experiment","4_9_add_FNI.jpg","21","odd","legacy","256401","NA","89127","NA","NA","2013","NA","2027","84065","256401","259950","21382","81353","2014","mousetracking operator preview effect","0","0","0","no","false","no","1680"
"negative","undefined","1","undefined","undefined","white","no","legacy","legacy","legacy","0","relative","undefined","undefined","62","NA","0","0","0","0","0","0","0","78","78","0","15","0","no","04/24/19 11:37:24","A simple template for the mouse-tracking paradigm","yes","Experiment-TF.osexp","C:\Users\Kristen\Documents\opPreviewExperiment-master\procedure","no","mono","no","24","no","black","no","yes","1050","legacy","62","15","C:/Users/Kristen/Documents/opPreviewExperiment-master/procedure/subject-21.csv","legacy","Kafkaesque Koffka","3.2.6","mult","0","l","NA","NA","a","a","5062","NA","NA","19354","5062","2","2724","legacy","small","1024","2","48000","-16","experiment","3_6_mult_FI.jpg","21","odd","legacy","259980","NA","89127","NA","NA","2013","NA","2027","84065","259980","263852","21382","81353","2014","mousetracking operator preview effect","0","0","0","no","false","no","1680"
"negative","undefined","0","undefined","undefined","white","no","legacy","legacy","legacy","0","relative","undefined","undefined","63","NA","0","0","0","0","0","0","0","79","79","0","15","0","no","04/24/19 11:37:24","A simple template for the mouse-tracking paradigm","yes","Experiment-TF.osexp","C:\Users\Kristen\Documents\opPreviewExperiment-master\procedure","no","mono","no","24","no","black","no","yes","1050","legacy","63","15","C:/Users/Kristen/Documents/opPreviewExperiment-master/procedure/subject-21.csv","legacy","Kafkaesque Koffka","3.2.6","add","0","a","NA","NA","a","a","5062","NA","NA","19354","5062","2","894","legacy","small","1024","2","48000","-16","experiment","2_7_add_FNI.jpg","21","odd","legacy","263880","NA","89127","NA","NA","2013","NA","2027","84065","263880","266916","21382","81353","2014","mousetracking operator preview effect","0","0","0","no","false","no","1680"
"neutral","undefined","1","undefined","undefined","white","no","legacy","legacy","legacy","0","relative","undefined","undefined","64","NA","0","0","0","0","0","0","0","80","80","0","15","0","no","04/24/19 11:37:24","A simple template for the mouse-tracking paradigm","yes","Experiment-TF.osexp","C:\Users\Kristen\Documents\opPreviewExperiment-master\procedure","no","mono","no","24","no","black","no","yes","1050","legacy","64","15","C:/Users/Kristen/Documents/opPreviewExperiment-master/procedure/subject-21.csv","legacy","Kafkaesque Koffka","3.2.6","add","0","l","NA","NA","a","a","5062","NA","NA","19354","5062","2","3668","legacy","small","1024","2","48000","-16","experiment","5_3_add_FNI.jpg","21","odd","legacy","266956","NA","89127","NA","NA","2013","NA","2027","84065","266956","271598","21382","81353","2014","mousetracking operator preview effect","0","0","0","no","false","no","1680"
"negative","undefined","1","undefined","undefined","white","no","legacy","legacy","legacy","0","relative","undefined","undefined","65","NA","0","0","0","0","0","0","0","81","81","0","15","0","no","04/24/19 11:37:24","A simple template for the mouse-tracking paradigm","yes","Experiment-TF.osexp","C:\Users\Kristen\Documents\opPreviewExperiment-master\procedure","no","mono","no","24","no","black","no","yes","1050","legacy","65","15","C:/Users/Kristen/Documents/opPreviewExperiment-master/procedure/subject-21.csv","legacy","Kafkaesque Koffka","3.2.6","mult","0","l","NA","NA","a","a","5062","NA","NA","19354","5062","2","3386","legacy","large","1024","2","48000","-16","experiment","8_4_mult_FNI.jpg","21","odd","legacy","271619","NA","89127","NA","NA","2013","NA","2027","84065","271620","276135","21382","81353","2014","mousetracking operator preview effect","0","0","0","no","false","no","1680"
"negative","undefined","1","undefined","undefined","white","no","legacy","legacy","legacy","0","relative","undefined","undefined","66","NA","0","0","0","0","0","0","0","82","82","0","15","0","no","04/24/19 11:37:24","A simple template for the mouse-tracking paradigm","yes","Experiment-TF.osexp","C:\Users\Kristen\Documents\opPreviewExperiment-master\procedure","no","mono","no","24","no","black","no","yes","1050","legacy","66","15","C:/Users/Kristen/Documents/opPreviewExperiment-master/procedure/subject-21.csv","legacy","Kafkaesque Koffka","3.2.6","add","0","a","NA","NA","a","a","5062","NA","NA","19354","5062","2","963","legacy","small","1024","2","48000","-16","experiment","5_3_add_true.jpg","21","odd","legacy","276155","NA","89127","NA","NA","2013","NA","2027","84065","276155","278258","21382","81353","2014","mousetracking operator preview effect","0","0","0","no","true","no","1680"
"negative","undefined","1","undefined","undefined","white","no","legacy","legacy","legacy","0","relative","undefined","undefined","67","NA","0","0","0","0","0","0","0","83","83","0","15","0","no","04/24/19 11:37:24","A simple template for the mouse-tracking paradigm","yes","Experiment-TF.osexp","C:\Users\Kristen\Documents\opPreviewExperiment-master\procedure","no","mono","no","24","no","black","no","yes","1050","legacy","67","15","C:/Users/Kristen/Documents/opPreviewExperiment-master/procedure/subject-21.csv","legacy","Kafkaesque Koffka","3.2.6","mult","0","a","NA","NA","a","a","5062","NA","NA","19354","5062","2","2503","legacy","large","1024","2","48000","-16","experiment","9_7_mult_true.jpg","21","odd","legacy","278279","NA","89127","NA","NA","2013","NA","2027","84065","278279","281935","21382","81353","2014","mousetracking operator preview effect","0","0","0","no","true","no","1680"
"neutral","undefined","1","undefined","undefined","white","no","legacy","legacy","legacy","0","relative","undefined","undefined","68","NA","0","0","0","0","0","0","0","84","84","0","15","0","no","04/24/19 11:37:24","A simple template for the mouse-tracking paradigm","yes","Experiment-TF.osexp","C:\Users\Kristen\Documents\opPreviewExperiment-master\procedure","no","mono","no","24","no","black","no","yes","1050","legacy","68","15","C:/Users/Kristen/Documents/opPreviewExperiment-master/procedure/subject-21.csv","legacy","Kafkaesque Koffka","3.2.6","add","0","a","NA","NA","a","a","5062","NA","NA","19354","5062","2","793","legacy","small","1024","2","48000","-16","experiment","2_7_add_true.jpg","21","odd","legacy","281957","NA","89127","NA","NA","2013","NA","2027","84065","281957","283720","21382","81353","2014","mousetracking operator preview effect","0","0","0","no","true","no","1680"
"negative","undefined","1","undefined","undefined","white","no","legacy","legacy","legacy","0","relative","undefined","undefined","69","NA","0","0","0","0","0","0","0","85","85","0","15","0","no","04/24/19 11:37:24","A simple template for the mouse-tracking paradigm","yes","Experiment-TF.osexp","C:\Users\Kristen\Documents\opPreviewExperiment-master\procedure","no","mono","no","24","no","black","no","yes","1050","legacy","69","15","C:/Users/Kristen/Documents/opPreviewExperiment-master/procedure/subject-21.csv","legacy","Kafkaesque Koffka","3.2.6","mult","0","a","NA","NA","a","a","5062","NA","NA","19354","5062","2","818","legacy","large","1024","2","48000","-16","experiment","8_4_mult_true.jpg","21","odd","legacy","283749","NA","89127","NA","NA","2013","NA","2027","84065","283749","285724","21382","81353","2014","mousetracking operator preview effect","0","0","0","no","true","no","1680"
"negative","undefined","1","undefined","undefined","white","no","legacy","legacy","legacy","0","relative","undefined","undefined","70","NA","0","0","0","0","0","0","0","86","86","0","15","0","no","04/24/19 11:37:24","A simple template for the mouse-tracking paradigm","yes","Experiment-TF.osexp","C:\Users\Kristen\Documents\opPreviewExperiment-master\procedure","no","mono","no","24","no","black","no","yes","1050","legacy","70","15","C:/Users/Kristen/Documents/opPreviewExperiment-master/procedure/subject-21.csv","legacy","Kafkaesque Koffka","3.2.6","mult","0","l","NA","NA","a","a","5062","NA","NA","19354","5062","2","753","legacy","small","1024","2","48000","-16","experiment","5_3_mult_FNI.jpg","21","odd","legacy","285745","NA","89127","NA","NA","2013","NA","2027","84065","285745","287617","21382","81353","2014","mousetracking operator preview effect","0","0","0","no","false","no","1680"
"negative","undefined","1","undefined","undefined","white","no","legacy","legacy","legacy","0","relative","undefined","undefined","71","NA","0","0","0","0","0","0","0","87","87","0","15","0","no","04/24/19 11:37:24","A simple template for the mouse-tracking paradigm","yes","Experiment-TF.osexp","C:\Users\Kristen\Documents\opPreviewExperiment-master\procedure","no","mono","no","24","no","black","no","yes","1050","legacy","71","15","C:/Users/Kristen/Documents/opPreviewExperiment-master/procedure/subject-21.csv","legacy","Kafkaesque Koffka","3.2.6","add","0","l","NA","NA","a","a","5062","NA","NA","19354","5062","2","1184","legacy","large","1024","2","48000","-16","experiment","8_4_add_FNI.jpg","21","odd","legacy","287637","NA","89127","NA","NA","2013","NA","2027","84065","287637","289976","21382","81353","2014","mousetracking operator preview effect","0","0","0","no","false","no","1680"
"negative","undefined","1","undefined","undefined","white","no","legacy","legacy","legacy","0","relative","undefined","undefined","72","NA","0","0","0","0","0","0","0","88","88","0","15","0","no","04/24/19 11:37:24","A simple template for the mouse-tracking paradigm","yes","Experiment-TF.osexp","C:\Users\Kristen\Documents\opPreviewExperiment-master\procedure","no","mono","no","24","no","black","no","yes","1050","legacy","72","15","C:/Users/Kristen/Documents/opPreviewExperiment-master/procedure/subject-21.csv","legacy","Kafkaesque Koffka","3.2.6","mult","0","a","NA","NA","a","a","5062","NA","NA","19354","5062","2","664","legacy","small","1024","2","48000","-16","experiment","2_7_mult_true.jpg","21","odd","legacy","290002","NA","89127","NA","NA","2013","NA","2027","84065","290002","291806","21382","81353","2014","mousetracking operator preview effect","0","0","0","no","true","no","1680"
"negative","undefined","1","undefined","undefined","white","no","legacy","legacy","legacy","0","relative","undefined","undefined","73","NA","0","0","0","0","0","0","0","89","89","0","15","0","no","04/24/19 11:37:24","A simple template for the mouse-tracking paradigm","yes","Experiment-TF.osexp","C:\Users\Kristen\Documents\opPreviewExperiment-master\procedure","no","mono","no","24","no","black","no","yes","1050","legacy","73","15","C:/Users/Kristen/Documents/opPreviewExperiment-master/procedure/subject-21.csv","legacy","Kafkaesque Koffka","3.2.6","mult","0","a","NA","NA","a","a","5062","NA","NA","19354","5062","2","1014","legacy","large","1024","2","48000","-16","experiment","8_4_mult_true.jpg","21","odd","legacy","291834","NA","89127","NA","NA","2013","NA","2027","84065","291834","293994","21382","81353","2014","mousetracking operator preview effect","0","0","0","no","true","no","1680"
"negative","undefined","1","undefined","undefined","white","no","legacy","legacy","legacy","0","relative","undefined","undefined","74","NA","0","0","0","0","0","0","0","90","90","0","15","0","no","04/24/19 11:37:24","A simple template for the mouse-tracking paradigm","yes","Experiment-TF.osexp","C:\Users\Kristen\Documents\opPreviewExperiment-master\procedure","no","mono","no","24","no","black","no","yes","1050","legacy","74","15","C:/Users/Kristen/Documents/opPreviewExperiment-master/procedure/subject-21.csv","legacy","Kafkaesque Koffka","3.2.6","add","0","a","NA","NA","a","a","5062","NA","NA","19354","5062","2","664","legacy","small","1024","2","48000","-16","experiment","3_6_add_true.jpg","21","odd","legacy","294016","NA","89127","NA","NA","2013","NA","2027","84065","294016","295824","21382","81353","2014","mousetracking operator preview effect","0","0","0","no","true","no","1680"
"neutral","undefined","1","undefined","undefined","white","no","legacy","legacy","legacy","0","relative","undefined","undefined","75","NA","0","0","0","0","0","0","0","91","91","0","15","0","no","04/24/19 11:37:24","A simple template for the mouse-tracking paradigm","yes","Experiment-TF.osexp","C:\Users\Kristen\Documents\opPreviewExperiment-master\procedure","no","mono","no","24","no","black","no","yes","1050","legacy","75","15","C:/Users/Kristen/Documents/opPreviewExperiment-master/procedure/subject-21.csv","legacy","Kafkaesque Koffka","3.2.6","add","0","l","NA","NA","a","a","5062","NA","NA","19354","5062","2","2173","legacy","large","1024","2","48000","-16","experiment","6_8_add_FNI.jpg","21","odd","legacy","295851","NA","89127","NA","NA","2013","NA","2027","84065","295852","299000","21382","81353","2014","mousetracking operator preview effect","0","0","0","no","false","no","1680"
"neutral","undefined","0","undefined","undefined","white","no","legacy","legacy","legacy","0","relative","undefined","undefined","76","NA","0","0","0","0","0","0","0","92","92","0","15","0","no","04/24/19 11:37:24","A simple template for the mouse-tracking paradigm","yes","Experiment-TF.osexp","C:\Users\Kristen\Documents\opPreviewExperiment-master\procedure","no","mono","no","24","no","black","no","yes","1050","legacy","76","15","C:/Users/Kristen/Documents/opPreviewExperiment-master/procedure/subject-21.csv","legacy","Kafkaesque Koffka","3.2.6","add","0","l","NA","NA","a","a","5062","NA","NA","19354","5062","2","1159","legacy","large","1024","2","48000","-16","experiment","4_9_add_true.jpg","21","odd","legacy","299022","NA","89127","NA","NA","2013","NA","2027","84065","299022","302179","21382","81353","2014","mousetracking operator preview effect","0","0","0","no","true","no","1680"
"neutral","undefined","1","undefined","undefined","white","no","legacy","legacy","legacy","0","relative","undefined","undefined","77","NA","0","0","0","0","0","0","0","93","93","0","15","0","no","04/24/19 11:37:24","A simple template for the mouse-tracking paradigm","yes","Experiment-TF.osexp","C:\Users\Kristen\Documents\opPreviewExperiment-master\procedure","no","mono","no","24","no","black","no","yes","1050","legacy","77","15","C:/Users/Kristen/Documents/opPreviewExperiment-master/procedure/subject-21.csv","legacy","Kafkaesque Koffka","3.2.6","mult","0","a","NA","NA","a","a","5062","NA","NA","19354","5062","2","1450","legacy","small","1024","2","48000","-16","experiment","5_3_mult_true.jpg","21","odd","legacy","302220","NA","89127","NA","NA","2013","NA","2027","84065","302220","304643","21382","81353","2014","mousetracking operator preview effect","0","0","0","no","true","no","1680"
"neutral","undefined","1","undefined","undefined","white","no","legacy","legacy","legacy","0","relative","undefined","undefined","78","NA","0","0","0","0","0","0","0","94","94","0","15","0","no","04/24/19 11:37:24","A simple template for the mouse-tracking paradigm","yes","Experiment-TF.osexp","C:\Users\Kristen\Documents\opPreviewExperiment-master\procedure","no","mono","no","24","no","black","no","yes","1050","legacy","78","15","C:/Users/Kristen/Documents/opPreviewExperiment-master/procedure/subject-21.csv","legacy","Kafkaesque Koffka","3.2.6","add","0","a","NA","NA","a","a","5062","NA","NA","19354","5062","2","3045","legacy","large","1024","2","48000","-16","experiment","4_9_add_true.jpg","21","odd","legacy","304664","NA","89127","NA","NA","2013","NA","2027","84065","304664","308665","21382","81353","2014","mousetracking operator preview effect","0","0","0","no","true","no","1680"
"negative","undefined","1","undefined","undefined","white","no","legacy","legacy","legacy","0","relative","undefined","undefined","79","NA","0","0","0","0","0","0","0","95","95","0","15","0","no","04/24/19 11:37:24","A simple template for the mouse-tracking paradigm","yes","Experiment-TF.osexp","C:\Users\Kristen\Documents\opPreviewExperiment-master\procedure","no","mono","no","24","no","black","no","yes","1050","legacy","79","15","C:/Users/Kristen/Documents/opPreviewExperiment-master/procedure/subject-21.csv","legacy","Kafkaesque Koffka","3.2.6","mult","0","a","NA","NA","a","a","5062","NA","NA","19354","5062","2","1151","legacy","large","1024","2","48000","-16","experiment","4_9_mult_true.jpg","21","odd","legacy","308680","NA","89127","NA","NA","2013","NA","2027","84065","308680","310978","21382","81353","2014","mousetracking operator preview effect","0","0","0","no","true","no","1680"
"neutral","undefined","1","undefined","undefined","white","no","legacy","legacy","legacy","0","relative","undefined","undefined","80","NA","0","0","0","0","0","0","0","96","96","0","15","0","no","04/24/19 11:37:24","A simple template for the mouse-tracking paradigm","yes","Experiment-TF.osexp","C:\Users\Kristen\Documents\opPreviewExperiment-master\procedure","no","mono","no","24","no","black","no","yes","1050","legacy","80","15","C:/Users/Kristen/Documents/opPreviewExperiment-master/procedure/subject-21.csv","legacy","Kafkaesque Koffka","3.2.6","mult","0","a","NA","NA","a","a","5062","NA","NA","19354","5062","2","745","legacy","small","1024","2","48000","-16","experiment","3_6_mult_true.jpg","21","odd","legacy","311000","NA","89127","NA","NA","2013","NA","2027","84065","311000","312733","21382","81353","2014","mousetracking operator preview effect","0","0","0","no","true","no","1680"
"negative","undefined","1","undefined","undefined","white","no","legacy","legacy","legacy","0","relative","undefined","undefined","81","NA","0","0","0","0","0","0","0","97","97","0","15","0","no","04/24/19 11:37:24","A simple template for the mouse-tracking paradigm","yes","Experiment-TF.osexp","C:\Users\Kristen\Documents\opPreviewExperiment-master\procedure","no","mono","no","24","no","black","no","yes","1050","legacy","81","15","C:/Users/Kristen/Documents/opPreviewExperiment-master/procedure/subject-21.csv","legacy","Kafkaesque Koffka","3.2.6","mult","0","a","NA","NA","a","a","5062","NA","NA","19354","5062","2","646","legacy","small","1024","2","48000","-16","experiment","2_7_mult_true.jpg","21","odd","legacy","312764","NA","89127","NA","NA","2013","NA","2027","84065","312764","314563","21382","81353","2014","mousetracking operator preview effect","0","0","0","no","true","no","1680"
"neutral","undefined","1","undefined","undefined","white","no","legacy","legacy","legacy","0","relative","undefined","undefined","82","NA","0","0","0","0","0","0","0","98","98","0","15","0","no","04/24/19 11:37:24","A simple template for the mouse-tracking paradigm","yes","Experiment-TF.osexp","C:\Users\Kristen\Documents\opPreviewExperiment-master\procedure","no","mono","no","24","no","black","no","yes","1050","legacy","82","15","C:/Users/Kristen/Documents/opPreviewExperiment-master/procedure/subject-21.csv","legacy","Kafkaesque Koffka","3.2.6","mult","0","a","NA","NA","a","a","5062","NA","NA","19354","5062","2","866","legacy","large","1024","2","48000","-16","experiment","6_8_mult_true.jpg","21","odd","legacy","314594","NA","89127","NA","NA","2013","NA","2027","84065","314594","316420","21382","81353","2014","mousetracking operator preview effect","0","0","0","no","true","no","1680"
"neutral","undefined","1","undefined","undefined","white","no","legacy","legacy","legacy","0","relative","undefined","undefined","83","NA","0","0","0","0","0","0","0","99","99","0","15","0","no","04/24/19 11:37:24","A simple template for the mouse-tracking paradigm","yes","Experiment-TF.osexp","C:\Users\Kristen\Documents\opPreviewExperiment-master\procedure","no","mono","no","24","no","black","no","yes","1050","legacy","83","15","C:/Users/Kristen/Documents/opPreviewExperiment-master/procedure/subject-21.csv","legacy","Kafkaesque Koffka","3.2.6","add","0","a","NA","NA","a","a","5062","NA","NA","19354","5062","2","679","legacy","small","1024","2","48000","-16","experiment","3_6_add_true.jpg","21","odd","legacy","316441","NA","89127","NA","NA","2013","NA","2027","84065","316441","318069","21382","81353","2014","mousetracking operator preview effect","0","0","0","no","true","no","1680"
"neutral","undefined","1","undefined","undefined","white","no","legacy","legacy","legacy","0","relative","undefined","undefined","84","NA","0","0","0","0","0","0","0","100","100","0","15","0","no","04/24/19 11:37:24","A simple template for the mouse-tracking paradigm","yes","Experiment-TF.osexp","C:\Users\Kristen\Documents\opPreviewExperiment-master\procedure","no","mono","no","24","no","black","no","yes","1050","legacy","84","15","C:/Users/Kristen/Documents/opPreviewExperiment-master/procedure/subject-21.csv","legacy","Kafkaesque Koffka","3.2.6","add","0","a","NA","NA","a","a","5062","NA","NA","19354","5062","2","961","legacy","small","1024","2","48000","-16","experiment","5_3_add_true.jpg","21","odd","legacy","318091","NA","89127","NA","NA","2013","NA","2027","84065","318091","320026","21382","81353","2014","mousetracking operator preview effect","0","0","0","no","true","no","1680"
"negative","undefined","1","undefined","undefined","white","no","legacy","legacy","legacy","0","relative","undefined","undefined","85","NA","0","0","0","0","0","0","0","101","101","0","15","0","no","04/24/19 11:37:24","A simple template for the mouse-tracking paradigm","yes","Experiment-TF.osexp","C:\Users\Kristen\Documents\opPreviewExperiment-master\procedure","no","mono","no","24","no","black","no","yes","1050","legacy","85","15","C:/Users/Kristen/Documents/opPreviewExperiment-master/procedure/subject-21.csv","legacy","Kafkaesque Koffka","3.2.6","add","0","l","NA","NA","a","a","5062","NA","NA","19354","5062","2","801","legacy","small","1024","2","48000","-16","experiment","5_3_add_FNI.jpg","21","odd","legacy","320047","NA","89127","NA","NA","2013","NA","2027","84065","320047","321972","21382","81353","2014","mousetracking operator preview effect","0","0","0","no","false","no","1680"
"neutral","undefined","0","undefined","undefined","white","no","legacy","legacy","legacy","0","relative","undefined","undefined","86","NA","0","0","0","0","0","0","0","102","102","0","15","0","no","04/24/19 11:37:24","A simple template for the mouse-tracking paradigm","yes","Experiment-TF.osexp","C:\Users\Kristen\Documents\opPreviewExperiment-master\procedure","no","mono","no","24","no","black","no","yes","1050","legacy","86","15","C:/Users/Kristen/Documents/opPreviewExperiment-master/procedure/subject-21.csv","legacy","Kafkaesque Koffka","3.2.6","add","0","a","NA","NA","a","a","5062","NA","NA","19354","5062","2","1404","legacy","small","1024","2","48000","-16","experiment","3_6_add_FNI.jpg","21","odd","legacy","321996","NA","89127","NA","NA","2013","NA","2027","84065","321996","325378","21382","81353","2014","mousetracking operator preview effect","0","0","0","no","false","no","1680"
"neutral","undefined","1","undefined","undefined","white","no","legacy","legacy","legacy","0","relative","undefined","undefined","87","NA","0","0","0","0","0","0","0","103","103","0","15","0","no","04/24/19 11:37:24","A simple template for the mouse-tracking paradigm","yes","Experiment-TF.osexp","C:\Users\Kristen\Documents\opPreviewExperiment-master\procedure","no","mono","no","24","no","black","no","yes","1050","legacy","87","15","C:/Users/Kristen/Documents/opPreviewExperiment-master/procedure/subject-21.csv","legacy","Kafkaesque Koffka","3.2.6","mult","0","l","NA","NA","a","a","5062","NA","NA","19354","5062","2","991","legacy","large","1024","2","48000","-16","experiment","8_4_mult_FI.jpg","21","odd","legacy","325410","NA","89127","NA","NA","2013","NA","2027","84065","325410","327363","21382","81353","2014","mousetracking operator preview effect","0","0","0","no","false","no","1680"
"neutral","undefined","1","undefined","undefined","white","no","legacy","legacy","legacy","0","relative","undefined","undefined","88","NA","0","0","0","0","0","0","0","104","104","0","15","0","no","04/24/19 11:37:24","A simple template for the mouse-tracking paradigm","yes","Experiment-TF.osexp","C:\Users\Kristen\Documents\opPreviewExperiment-master\procedure","no","mono","no","24","no","black","no","yes","1050","legacy","88","15","C:/Users/Kristen/Documents/opPreviewExperiment-master/procedure/subject-21.csv","legacy","Kafkaesque Koffka","3.2.6","mult","0","a","NA","NA","a","a","5062","NA","NA","19354","5062","2","1172","legacy","small","1024","2","48000","-16","experiment","8_2_mult_true.jpg","21","odd","legacy","327385","NA","89127","NA","NA","2013","NA","2027","84065","327385","329528","21382","81353","2014","mousetracking operator preview effect","0","0","0","no","true","no","1680"
"neutral","undefined","1","undefined","undefined","white","no","legacy","legacy","legacy","0","relative","undefined","undefined","89","NA","0","0","0","0","0","0","0","105","105","0","15","0","no","04/24/19 11:37:24","A simple template for the mouse-tracking paradigm","yes","Experiment-TF.osexp","C:\Users\Kristen\Documents\opPreviewExperiment-master\procedure","no","mono","no","24","no","black","no","yes","1050","legacy","89","15","C:/Users/Kristen/Documents/opPreviewExperiment-master/procedure/subject-21.csv","legacy","Kafkaesque Koffka","3.2.6","mult","0","l","NA","NA","a","a","5062","NA","NA","19354","5062","2","1219","legacy","large","1024","2","48000","-16","experiment","6_8_mult_FI.jpg","21","odd","legacy","329555","NA","89127","NA","NA","2013","NA","2027","84065","329555","331750","21382","81353","2014","mousetracking operator preview effect","0","0","0","no","false","no","1680"
"neutral","undefined","1","undefined","undefined","white","no","legacy","legacy","legacy","0","relative","undefined","undefined","90","NA","0","0","0","0","0","0","0","106","106","0","15","0","no","04/24/19 11:37:24","A simple template for the mouse-tracking paradigm","yes","Experiment-TF.osexp","C:\Users\Kristen\Documents\opPreviewExperiment-master\procedure","no","mono","no","24","no","black","no","yes","1050","legacy","90","15","C:/Users/Kristen/Documents/opPreviewExperiment-master/procedure/subject-21.csv","legacy","Kafkaesque Koffka","3.2.6","mult","0","a","NA","NA","a","a","5062","NA","NA","19354","5062","2","1483","legacy","large","1024","2","48000","-16","experiment","4_9_mult_true.jpg","21","odd","legacy","331771","NA","89127","NA","NA","2013","NA","2027","84065","331771","334229","21382","81353","2014","mousetracking operator preview effect","0","0","0","no","true","no","1680"
"neutral","undefined","0","undefined","undefined","white","no","legacy","legacy","legacy","0","relative","undefined","undefined","91","NA","0","0","0","0","0","0","0","107","107","0","15","0","no","04/24/19 11:37:24","A simple template for the mouse-tracking paradigm","yes","Experiment-TF.osexp","C:\Users\Kristen\Documents\opPreviewExperiment-master\procedure","no","mono","no","24","no","black","no","yes","1050","legacy","91","15","C:/Users/Kristen/Documents/opPreviewExperiment-master/procedure/subject-21.csv","legacy","Kafkaesque Koffka","3.2.6","add","0","l","NA","NA","a","a","5062","NA","NA","19354","5062","2","1900","legacy","small","1024","2","48000","-16","experiment","2_7_add_true.jpg","21","odd","legacy","334256","NA","89127","NA","NA","2013","NA","2027","84065","334256","338149","21382","81353","2014","mousetracking operator preview effect","0","0","0","no","true","no","1680"
"negative","undefined","1","undefined","undefined","white","no","legacy","legacy","legacy","0","relative","undefined","undefined","92","NA","0","0","0","0","0","0","0","108","108","0","15","0","no","04/24/19 11:37:24","A simple template for the mouse-tracking paradigm","yes","Experiment-TF.osexp","C:\Users\Kristen\Documents\opPreviewExperiment-master\procedure","no","mono","no","24","no","black","no","yes","1050","legacy","92","15","C:/Users/Kristen/Documents/opPreviewExperiment-master/procedure/subject-21.csv","legacy","Kafkaesque Koffka","3.2.6","mult","0","l","NA","NA","a","a","5062","NA","NA","19354","5062","2","2418","legacy","small","1024","2","48000","-16","experiment","3_6_mult_FNI.jpg","21","odd","legacy","338192","NA","89127","NA","NA","2013","NA","2027","84065","338193","341763","21382","81353","2014","mousetracking operator preview effect","0","0","0","no","false","no","1680"
