"SOAcondition","acc","accuracy","average_response_time","avg_rt","background","bidi","canvas_backend","clock_backend","color_backend","compensation","coordinates","correct","correct_instruction1","count_block1_sequence","count_block2_sequence","count_block_1","count_block_2","count_breakScreen","count_experiment","count_finish","count_instruction1","count_instruction2","count_keyboard_script","count_logger","count_practiceBlock","count_practice_sequence","count_setup_script","custom_cursor","datetime","description","disable_garbage_collection","experiment_file","experiment_path","font_bold","font_family","font_italic","font_size","font_underline","foreground","form_clicks","fullscreen","height","keyboard_backend","live_row","live_row_practiceBlock","logfile","mouse_backend","opensesame_codename","opensesame_version","operation","repeat_cycle","response","response_breakScreen","response_finish","response_instruction1","response_instruction2","response_time","response_time_breakScreen","response_time_finish","response_time_instruction1","response_time_instruction2","round_decimals","rt","sampler_backend","size","sound_buf_size","sound_channels","sound_freq","sound_sample_size","start","stimulus","subject_nr","subject_parity","synth_backend","time_block1_sequence","time_block2_sequence","time_block_1","time_block_2","time_breakScreen","time_experiment","time_finish","time_instruction1","time_instruction2","time_keyboard_script","time_logger","time_practiceBlock","time_practice_sequence","time_setup_script","title","total_correct","total_response_time","total_responses","transparent_variables","truth","uniform_coordinates","width"
"neutral","undefined","1","undefined","undefined","white","no","legacy","legacy","legacy","0","relative","undefined","undefined","NA","NA","0","0","0","0","0","0","0","0","0","0","0","0","no","04/13/19 10:25:37","A simple template for the mouse-tracking paradigm","yes","Experiment-TF.osexp","C:\Users\Kristen\Documents\opPreviewExperiment-master\procedure","no","mono","no","24","no","black","no","yes","1050","legacy","0","0","C:/Users/Kristen/Documents/opPreviewExperiment-master/procedure/subject-17.csv","legacy","Kafkaesque Koffka","3.2.6","mult","0","a","NA","NA","a","NA","41472","NA","NA","41472","NA","2","2265","legacy","NA","1024","2","48000","-16","experiment","1_4_mult_T.jpg","17","odd","legacy","NA","NA","NA","NA","NA","2701","NA","2718","NA","44194","47500","44191","44194","2702","mousetracking operator preview effect","0","0","0","no","true","no","1680"
"negative","undefined","1","undefined","undefined","white","no","legacy","legacy","legacy","0","relative","undefined","undefined","NA","NA","0","0","0","0","0","0","0","1","1","0","1","0","no","04/13/19 10:25:37","A simple template for the mouse-tracking paradigm","yes","Experiment-TF.osexp","C:\Users\Kristen\Documents\opPreviewExperiment-master\procedure","no","mono","no","24","no","black","no","yes","1050","legacy","1","1","C:/Users/Kristen/Documents/opPreviewExperiment-master/procedure/subject-17.csv","legacy","Kafkaesque Koffka","3.2.6","add","0","l","NA","NA","a","NA","41472","NA","NA","41472","NA","2","1825","legacy","NA","1024","2","48000","-16","experiment","1_4_add_F.jpg","17","odd","legacy","NA","NA","NA","NA","NA","2701","NA","2718","NA","47528","50526","44191","47528","2702","mousetracking operator preview effect","0","0","0","no","false","no","1680"
"neutral","undefined","1","undefined","undefined","white","no","legacy","legacy","legacy","0","relative","undefined","undefined","NA","NA","0","0","0","0","0","0","0","2","2","0","2","0","no","04/13/19 10:25:37","A simple template for the mouse-tracking paradigm","yes","Experiment-TF.osexp","C:\Users\Kristen\Documents\opPreviewExperiment-master\procedure","no","mono","no","24","no","black","no","yes","1050","legacy","2","2","C:/Users/Kristen/Documents/opPreviewExperiment-master/procedure/subject-17.csv","legacy","Kafkaesque Koffka","3.2.6","mult","0","a","NA","NA","a","NA","41472","NA","NA","41472","NA","2","1173","legacy","NA","1024","2","48000","-16","experiment","0_3_mult_T.jpg","17","odd","legacy","NA","NA","NA","NA","NA","2701","NA","2718","NA","50558","52707","44191","50558","2702","mousetracking operator preview effect","0","0","0","no","true","no","1680"
"neutral","undefined","1","undefined","undefined","white","no","legacy","legacy","legacy","0","relative","undefined","undefined","NA","NA","0","0","0","0","0","0","0","3","3","0","3","0","no","04/13/19 10:25:37","A simple template for the mouse-tracking paradigm","yes","Experiment-TF.osexp","C:\Users\Kristen\Documents\opPreviewExperiment-master\procedure","no","mono","no","24","no","black","no","yes","1050","legacy","3","3","C:/Users/Kristen/Documents/opPreviewExperiment-master/procedure/subject-17.csv","legacy","Kafkaesque Koffka","3.2.6","add","0","a","NA","NA","a","NA","41472","NA","NA","41472","NA","2","1599","legacy","NA","1024","2","48000","-16","experiment","0_3_add_T.jpg","17","odd","legacy","NA","NA","NA","NA","NA","2701","NA","2718","NA","52729","55316","44191","52729","2702","mousetracking operator preview effect","0","0","0","no","true","no","1680"
"negative","undefined","1","undefined","undefined","white","no","legacy","legacy","legacy","0","relative","undefined","undefined","NA","NA","0","0","0","0","0","0","0","4","4","0","4","0","no","04/13/19 10:25:37","A simple template for the mouse-tracking paradigm","yes","Experiment-TF.osexp","C:\Users\Kristen\Documents\opPreviewExperiment-master\procedure","no","mono","no","24","no","black","no","yes","1050","legacy","4","4","C:/Users/Kristen/Documents/opPreviewExperiment-master/procedure/subject-17.csv","legacy","Kafkaesque Koffka","3.2.6","add","0","a","NA","NA","a","NA","41472","NA","NA","41472","NA","2","1980","legacy","NA","1024","2","48000","-16","experiment","0_3_add_T.jpg","17","odd","legacy","NA","NA","NA","NA","NA","2701","NA","2718","NA","55340","58466","44191","55340","2702","mousetracking operator preview effect","0","0","0","no","true","no","1680"
"neutral","undefined","1","undefined","undefined","white","no","legacy","legacy","legacy","0","relative","undefined","undefined","NA","NA","0","0","0","0","0","0","0","5","5","0","5","0","no","04/13/19 10:25:37","A simple template for the mouse-tracking paradigm","yes","Experiment-TF.osexp","C:\Users\Kristen\Documents\opPreviewExperiment-master\procedure","no","mono","no","24","no","black","no","yes","1050","legacy","5","5","C:/Users/Kristen/Documents/opPreviewExperiment-master/procedure/subject-17.csv","legacy","Kafkaesque Koffka","3.2.6","mult","0","l","NA","NA","a","NA","41472","NA","NA","41472","NA","2","1200","legacy","NA","1024","2","48000","-16","experiment","0_3_mult_F.jpg","17","odd","legacy","NA","NA","NA","NA","NA","2701","NA","2718","NA","58497","60696","44191","58497","2702","mousetracking operator preview effect","0","0","0","no","false","no","1680"
"neutral","undefined","0","undefined","undefined","white","no","legacy","legacy","legacy","0","relative","undefined","undefined","NA","NA","0","0","0","0","0","0","0","6","6","0","6","0","no","04/13/19 10:25:37","A simple template for the mouse-tracking paradigm","yes","Experiment-TF.osexp","C:\Users\Kristen\Documents\opPreviewExperiment-master\procedure","no","mono","no","24","no","black","no","yes","1050","legacy","6","6","C:/Users/Kristen/Documents/opPreviewExperiment-master/procedure/subject-17.csv","legacy","Kafkaesque Koffka","3.2.6","mult","0","a","NA","NA","a","NA","41472","NA","NA","41472","NA","2","1209","legacy","NA","1024","2","48000","-16","experiment","1_4_mult_F.jpg","17","odd","legacy","NA","NA","NA","NA","NA","2701","NA","2718","NA","60711","63929","44191","60711","2702","mousetracking operator preview effect","0","0","0","no","false","no","1680"
"neutral","undefined","1","undefined","undefined","white","no","legacy","legacy","legacy","0","relative","undefined","undefined","NA","NA","0","0","0","0","0","0","0","7","7","0","7","0","no","04/13/19 10:25:37","A simple template for the mouse-tracking paradigm","yes","Experiment-TF.osexp","C:\Users\Kristen\Documents\opPreviewExperiment-master\procedure","no","mono","no","24","no","black","no","yes","1050","legacy","7","7","C:/Users/Kristen/Documents/opPreviewExperiment-master/procedure/subject-17.csv","legacy","Kafkaesque Koffka","3.2.6","add","0","a","NA","NA","a","NA","41472","NA","NA","41472","NA","2","1044","legacy","NA","1024","2","48000","-16","experiment","1_4_add_T.jpg","17","odd","legacy","NA","NA","NA","NA","NA","2701","NA","2718","NA","63967","66012","44191","63966","2702","mousetracking operator preview effect","0","0","0","no","true","no","1680"
"negative","undefined","1","undefined","undefined","white","no","legacy","legacy","legacy","0","relative","undefined","undefined","NA","NA","0","0","0","0","0","0","0","8","8","0","8","0","no","04/13/19 10:25:37","A simple template for the mouse-tracking paradigm","yes","Experiment-TF.osexp","C:\Users\Kristen\Documents\opPreviewExperiment-master\procedure","no","mono","no","24","no","black","no","yes","1050","legacy","8","8","C:/Users/Kristen/Documents/opPreviewExperiment-master/procedure/subject-17.csv","legacy","Kafkaesque Koffka","3.2.6","mult","0","l","NA","NA","a","NA","41472","NA","NA","41472","NA","2","792","legacy","NA","1024","2","48000","-16","experiment","0_3_mult_F.jpg","17","odd","legacy","NA","NA","NA","NA","NA","2701","NA","2718","NA","66038","68013","44191","66038","2702","mousetracking operator preview effect","0","0","0","no","false","no","1680"
"neutral","undefined","1","undefined","undefined","white","no","legacy","legacy","legacy","0","relative","undefined","undefined","NA","NA","0","0","0","0","0","0","0","9","9","0","9","0","no","04/13/19 10:25:37","A simple template for the mouse-tracking paradigm","yes","Experiment-TF.osexp","C:\Users\Kristen\Documents\opPreviewExperiment-master\procedure","no","mono","no","24","no","black","no","yes","1050","legacy","9","9","C:/Users/Kristen/Documents/opPreviewExperiment-master/procedure/subject-17.csv","legacy","Kafkaesque Koffka","3.2.6","add","0","l","NA","NA","a","NA","41472","NA","NA","41472","NA","2","1167","legacy","NA","1024","2","48000","-16","experiment","0_3_add_F.jpg","17","odd","legacy","NA","NA","NA","NA","NA","2701","NA","2718","NA","68037","70194","44191","68037","2702","mousetracking operator preview effect","0","0","0","no","false","no","1680"
"negative","undefined","1","undefined","undefined","white","no","legacy","legacy","legacy","0","relative","undefined","undefined","NA","NA","0","0","0","0","0","0","0","10","10","0","10","0","no","04/13/19 10:25:37","A simple template for the mouse-tracking paradigm","yes","Experiment-TF.osexp","C:\Users\Kristen\Documents\opPreviewExperiment-master\procedure","no","mono","no","24","no","black","no","yes","1050","legacy","10","10","C:/Users/Kristen/Documents/opPreviewExperiment-master/procedure/subject-17.csv","legacy","Kafkaesque Koffka","3.2.6","add","0","a","NA","NA","a","NA","41472","NA","NA","41472","NA","2","889","legacy","NA","1024","2","48000","-16","experiment","1_4_add_T.jpg","17","odd","legacy","NA","NA","NA","NA","NA","2701","NA","2718","NA","70215","72251","44191","70215","2702","mousetracking operator preview effect","0","0","0","no","true","no","1680"
"negative","undefined","1","undefined","undefined","white","no","legacy","legacy","legacy","0","relative","undefined","undefined","NA","NA","0","0","0","0","0","0","0","11","11","0","11","0","no","04/13/19 10:25:37","A simple template for the mouse-tracking paradigm","yes","Experiment-TF.osexp","C:\Users\Kristen\Documents\opPreviewExperiment-master\procedure","no","mono","no","24","no","black","no","yes","1050","legacy","11","11","C:/Users/Kristen/Documents/opPreviewExperiment-master/procedure/subject-17.csv","legacy","Kafkaesque Koffka","3.2.6","add","0","l","NA","NA","a","NA","41472","NA","NA","41472","NA","2","924","legacy","NA","1024","2","48000","-16","experiment","0_3_add_F.jpg","17","odd","legacy","NA","NA","NA","NA","NA","2701","NA","2718","NA","72277","74348","44191","72277","2702","mousetracking operator preview effect","0","0","0","no","false","no","1680"
"negative","undefined","1","undefined","undefined","white","no","legacy","legacy","legacy","0","relative","undefined","undefined","NA","NA","0","0","0","0","0","0","0","12","12","0","12","0","no","04/13/19 10:25:37","A simple template for the mouse-tracking paradigm","yes","Experiment-TF.osexp","C:\Users\Kristen\Documents\opPreviewExperiment-master\procedure","no","mono","no","24","no","black","no","yes","1050","legacy","12","12","C:/Users/Kristen/Documents/opPreviewExperiment-master/procedure/subject-17.csv","legacy","Kafkaesque Koffka","3.2.6","mult","0","a","NA","NA","a","NA","41472","NA","NA","41472","NA","2","705","legacy","NA","1024","2","48000","-16","experiment","1_4_mult_T.jpg","17","odd","legacy","NA","NA","NA","NA","NA","2701","NA","2718","NA","74370","76215","44191","74370","2702","mousetracking operator preview effect","0","0","0","no","true","no","1680"
"negative","undefined","1","undefined","undefined","white","no","legacy","legacy","legacy","0","relative","undefined","undefined","NA","NA","0","0","0","0","0","0","0","13","13","0","13","0","no","04/13/19 10:25:37","A simple template for the mouse-tracking paradigm","yes","Experiment-TF.osexp","C:\Users\Kristen\Documents\opPreviewExperiment-master\procedure","no","mono","no","24","no","black","no","yes","1050","legacy","13","13","C:/Users/Kristen/Documents/opPreviewExperiment-master/procedure/subject-17.csv","legacy","Kafkaesque Koffka","3.2.6","mult","0","a","NA","NA","a","NA","41472","NA","NA","41472","NA","2","1057","legacy","NA","1024","2","48000","-16","experiment","0_3_mult_T.jpg","17","odd","legacy","NA","NA","NA","NA","NA","2701","NA","2718","NA","76236","78449","44191","76236","2702","mousetracking operator preview effect","0","0","0","no","true","no","1680"
"negative","undefined","1","undefined","undefined","white","no","legacy","legacy","legacy","0","relative","undefined","undefined","NA","NA","0","0","0","0","0","0","0","14","14","0","14","0","no","04/13/19 10:25:37","A simple template for the mouse-tracking paradigm","yes","Experiment-TF.osexp","C:\Users\Kristen\Documents\opPreviewExperiment-master\procedure","no","mono","no","24","no","black","no","yes","1050","legacy","14","14","C:/Users/Kristen/Documents/opPreviewExperiment-master/procedure/subject-17.csv","legacy","Kafkaesque Koffka","3.2.6","mult","0","l","NA","NA","a","NA","41472","NA","NA","41472","NA","2","1085","legacy","NA","1024","2","48000","-16","experiment","1_4_mult_F.jpg","17","odd","legacy","NA","NA","NA","NA","NA","2701","NA","2718","NA","78474","80716","44191","78474","2702","mousetracking operator preview effect","0","0","0","no","false","no","1680"
"neutral","undefined","0","undefined","undefined","white","no","legacy","legacy","legacy","0","relative","undefined","undefined","NA","NA","0","0","0","0","0","0","0","15","15","0","15","0","no","04/13/19 10:25:37","A simple template for the mouse-tracking paradigm","yes","Experiment-TF.osexp","C:\Users\Kristen\Documents\opPreviewExperiment-master\procedure","no","mono","no","24","no","black","no","yes","1050","legacy","15","15","C:/Users/Kristen/Documents/opPreviewExperiment-master/procedure/subject-17.csv","legacy","Kafkaesque Koffka","3.2.6","add","0","a","NA","NA","a","NA","41472","NA","NA","41472","NA","2","1054","legacy","NA","1024","2","48000","-16","experiment","1_4_add_F.jpg","17","odd","legacy","NA","NA","NA","NA","NA","2701","NA","2718","NA","80736","83784","44191","80736","2702","mousetracking operator preview effect","0","0","0","no","false","no","1680"
"neutral","undefined","1","undefined","undefined","white","no","legacy","legacy","legacy","0","relative","undefined","undefined","0","NA","0","0","0","0","0","0","0","16","16","0","15","0","no","04/13/19 10:25:37","A simple template for the mouse-tracking paradigm","yes","Experiment-TF.osexp","C:\Users\Kristen\Documents\opPreviewExperiment-master\procedure","no","mono","no","24","no","black","no","yes","1050","legacy","0","15","C:/Users/Kristen/Documents/opPreviewExperiment-master/procedure/subject-17.csv","legacy","Kafkaesque Koffka","3.2.6","mult","0","l","NA","NA","a","a","17888","NA","NA","41472","17888","2","1358","legacy","small","1024","2","48000","-16","experiment","2_7_mult_FI.jpg","17","odd","legacy","101720","NA","101716","NA","NA","2701","NA","2718","83828","101720","104062","44191","80736","2702","mousetracking operator preview effect","0","0","0","no","false","no","1680"
"negative","undefined","1","undefined","undefined","white","no","legacy","legacy","legacy","0","relative","undefined","undefined","1","NA","0","0","0","0","0","0","0","17","17","0","15","0","no","04/13/19 10:25:37","A simple template for the mouse-tracking paradigm","yes","Experiment-TF.osexp","C:\Users\Kristen\Documents\opPreviewExperiment-master\procedure","no","mono","no","24","no","black","no","yes","1050","legacy","1","15","C:/Users/Kristen/Documents/opPreviewExperiment-master/procedure/subject-17.csv","legacy","Kafkaesque Koffka","3.2.6","mult","0","l","NA","NA","a","a","17888","NA","NA","41472","17888","2","2714","legacy","large","1024","2","48000","-16","experiment","9_7_mult_FNI.jpg","17","odd","legacy","104083","NA","101716","NA","NA","2701","NA","2718","83828","104083","107957","44191","80736","2702","mousetracking operator preview effect","0","0","0","no","false","no","1680"
"neutral","undefined","1","undefined","undefined","white","no","legacy","legacy","legacy","0","relative","undefined","undefined","2","NA","0","0","0","0","0","0","0","18","18","0","15","0","no","04/13/19 10:25:37","A simple template for the mouse-tracking paradigm","yes","Experiment-TF.osexp","C:\Users\Kristen\Documents\opPreviewExperiment-master\procedure","no","mono","no","24","no","black","no","yes","1050","legacy","2","15","C:/Users/Kristen/Documents/opPreviewExperiment-master/procedure/subject-17.csv","legacy","Kafkaesque Koffka","3.2.6","add","0","a","NA","NA","a","a","17888","NA","NA","41472","17888","2","1891","legacy","small","1024","2","48000","-16","experiment","5_3_add_true.jpg","17","odd","legacy","107982","NA","101716","NA","NA","2701","NA","2718","83828","107982","110873","44191","80736","2702","mousetracking operator preview effect","0","0","0","no","true","no","1680"
"negative","undefined","1","undefined","undefined","white","no","legacy","legacy","legacy","0","relative","undefined","undefined","3","NA","0","0","0","0","0","0","0","19","19","0","15","0","no","04/13/19 10:25:37","A simple template for the mouse-tracking paradigm","yes","Experiment-TF.osexp","C:\Users\Kristen\Documents\opPreviewExperiment-master\procedure","no","mono","no","24","no","black","no","yes","1050","legacy","3","15","C:/Users/Kristen/Documents/opPreviewExperiment-master/procedure/subject-17.csv","legacy","Kafkaesque Koffka","3.2.6","add","0","l","NA","NA","a","a","17888","NA","NA","41472","17888","2","1338","legacy","small","1024","2","48000","-16","experiment","5_3_add_FI.jpg","17","odd","legacy","110905","NA","101716","NA","NA","2701","NA","2718","83828","110905","113419","44191","80736","2702","mousetracking operator preview effect","0","0","0","no","false","no","1680"
"neutral","undefined","1","undefined","undefined","white","no","legacy","legacy","legacy","0","relative","undefined","undefined","4","NA","0","0","0","0","0","0","0","20","20","0","15","0","no","04/13/19 10:25:37","A simple template for the mouse-tracking paradigm","yes","Experiment-TF.osexp","C:\Users\Kristen\Documents\opPreviewExperiment-master\procedure","no","mono","no","24","no","black","no","yes","1050","legacy","4","15","C:/Users/Kristen/Documents/opPreviewExperiment-master/procedure/subject-17.csv","legacy","Kafkaesque Koffka","3.2.6","add","0","a","NA","NA","a","a","17888","NA","NA","41472","17888","2","1741","legacy","large","1024","2","48000","-16","experiment","6_8_add_true.jpg","17","odd","legacy","113441","NA","101716","NA","NA","2701","NA","2718","83828","113441","116180","44191","80736","2702","mousetracking operator preview effect","0","0","0","no","true","no","1680"
"neutral","undefined","1","undefined","undefined","white","no","legacy","legacy","legacy","0","relative","undefined","undefined","5","NA","0","0","0","0","0","0","0","21","21","0","15","0","no","04/13/19 10:25:37","A simple template for the mouse-tracking paradigm","yes","Experiment-TF.osexp","C:\Users\Kristen\Documents\opPreviewExperiment-master\procedure","no","mono","no","24","no","black","no","yes","1050","legacy","5","15","C:/Users/Kristen/Documents/opPreviewExperiment-master/procedure/subject-17.csv","legacy","Kafkaesque Koffka","3.2.6","mult","0","l","NA","NA","a","a","17888","NA","NA","41472","17888","2","2479","legacy","large","1024","2","48000","-16","experiment","9_7_mult_FNI.jpg","17","odd","legacy","116210","NA","101716","NA","NA","2701","NA","2718","83828","116210","119669","44191","80736","2702","mousetracking operator preview effect","0","0","0","no","false","no","1680"
"neutral","undefined","1","undefined","undefined","white","no","legacy","legacy","legacy","0","relative","undefined","undefined","6","NA","0","0","0","0","0","0","0","22","22","0","15","0","no","04/13/19 10:25:37","A simple template for the mouse-tracking paradigm","yes","Experiment-TF.osexp","C:\Users\Kristen\Documents\opPreviewExperiment-master\procedure","no","mono","no","24","no","black","no","yes","1050","legacy","6","15","C:/Users/Kristen/Documents/opPreviewExperiment-master/procedure/subject-17.csv","legacy","Kafkaesque Koffka","3.2.6","add","0","l","NA","NA","a","a","17888","NA","NA","41472","17888","2","1790","legacy","small","1024","2","48000","-16","experiment","2_7_add_FI.jpg","17","odd","legacy","119685","NA","101716","NA","NA","2701","NA","2718","83828","119685","122461","44191","80736","2702","mousetracking operator preview effect","0","0","0","no","false","no","1680"
"neutral","undefined","1","undefined","undefined","white","no","legacy","legacy","legacy","0","relative","undefined","undefined","7","NA","0","0","0","0","0","0","0","23","23","0","15","0","no","04/13/19 10:25:37","A simple template for the mouse-tracking paradigm","yes","Experiment-TF.osexp","C:\Users\Kristen\Documents\opPreviewExperiment-master\procedure","no","mono","no","24","no","black","no","yes","1050","legacy","7","15","C:/Users/Kristen/Documents/opPreviewExperiment-master/procedure/subject-17.csv","legacy","Kafkaesque Koffka","3.2.6","add","0","a","NA","NA","a","a","17888","NA","NA","41472","17888","2","1925","legacy","large","1024","2","48000","-16","experiment","9_7_add_true.jpg","17","odd","legacy","122495","NA","101716","NA","NA","2701","NA","2718","83828","122495","125419","44191","80736","2702","mousetracking operator preview effect","0","0","0","no","true","no","1680"
"negative","undefined","1","undefined","undefined","white","no","legacy","legacy","legacy","0","relative","undefined","undefined","8","NA","0","0","0","0","0","0","0","24","24","0","15","0","no","04/13/19 10:25:37","A simple template for the mouse-tracking paradigm","yes","Experiment-TF.osexp","C:\Users\Kristen\Documents\opPreviewExperiment-master\procedure","no","mono","no","24","no","black","no","yes","1050","legacy","8","15","C:/Users/Kristen/Documents/opPreviewExperiment-master/procedure/subject-17.csv","legacy","Kafkaesque Koffka","3.2.6","add","0","a","NA","NA","a","a","17888","NA","NA","41472","17888","2","1185","legacy","large","1024","2","48000","-16","experiment","6_8_add_true.jpg","17","odd","legacy","125439","NA","101716","NA","NA","2701","NA","2718","83828","125440","127773","44191","80736","2702","mousetracking operator preview effect","0","0","0","no","true","no","1680"
"neutral","undefined","1","undefined","undefined","white","no","legacy","legacy","legacy","0","relative","undefined","undefined","9","NA","0","0","0","0","0","0","0","25","25","0","15","0","no","04/13/19 10:25:37","A simple template for the mouse-tracking paradigm","yes","Experiment-TF.osexp","C:\Users\Kristen\Documents\opPreviewExperiment-master\procedure","no","mono","no","24","no","black","no","yes","1050","legacy","9","15","C:/Users/Kristen/Documents/opPreviewExperiment-master/procedure/subject-17.csv","legacy","Kafkaesque Koffka","3.2.6","add","0","a","NA","NA","a","a","17888","NA","NA","41472","17888","2","933","legacy","small","1024","2","48000","-16","experiment","5_3_add_true.jpg","17","odd","legacy","127801","NA","101716","NA","NA","2701","NA","2718","83828","127801","129713","44191","80736","2702","mousetracking operator preview effect","0","0","0","no","true","no","1680"
"neutral","undefined","1","undefined","undefined","white","no","legacy","legacy","legacy","0","relative","undefined","undefined","10","NA","0","0","0","0","0","0","0","26","26","0","15","0","no","04/13/19 10:25:37","A simple template for the mouse-tracking paradigm","yes","Experiment-TF.osexp","C:\Users\Kristen\Documents\opPreviewExperiment-master\procedure","no","mono","no","24","no","black","no","yes","1050","legacy","10","15","C:/Users/Kristen/Documents/opPreviewExperiment-master/procedure/subject-17.csv","legacy","Kafkaesque Koffka","3.2.6","add","0","a","NA","NA","a","a","17888","NA","NA","41472","17888","2","1073","legacy","small","1024","2","48000","-16","experiment","2_7_add_true.jpg","17","odd","legacy","129735","NA","101716","NA","NA","2701","NA","2718","83828","129735","131810","44191","80736","2702","mousetracking operator preview effect","0","0","0","no","true","no","1680"
"negative","undefined","1","undefined","undefined","white","no","legacy","legacy","legacy","0","relative","undefined","undefined","11","NA","0","0","0","0","0","0","0","27","27","0","15","0","no","04/13/19 10:25:37","A simple template for the mouse-tracking paradigm","yes","Experiment-TF.osexp","C:\Users\Kristen\Documents\opPreviewExperiment-master\procedure","no","mono","no","24","no","black","no","yes","1050","legacy","11","15","C:/Users/Kristen/Documents/opPreviewExperiment-master/procedure/subject-17.csv","legacy","Kafkaesque Koffka","3.2.6","add","0","a","NA","NA","a","a","17888","NA","NA","41472","17888","2","1027","legacy","small","1024","2","48000","-16","experiment","8_2_add_true.jpg","17","odd","legacy","131832","NA","101716","NA","NA","2701","NA","2718","83828","131832","134034","44191","80736","2702","mousetracking operator preview effect","0","0","0","no","true","no","1680"
"negative","undefined","1","undefined","undefined","white","no","legacy","legacy","legacy","0","relative","undefined","undefined","12","NA","0","0","0","0","0","0","0","28","28","0","15","0","no","04/13/19 10:25:37","A simple template for the mouse-tracking paradigm","yes","Experiment-TF.osexp","C:\Users\Kristen\Documents\opPreviewExperiment-master\procedure","no","mono","no","24","no","black","no","yes","1050","legacy","12","15","C:/Users/Kristen/Documents/opPreviewExperiment-master/procedure/subject-17.csv","legacy","Kafkaesque Koffka","3.2.6","add","0","a","NA","NA","a","a","17888","NA","NA","41472","17888","2","1059","legacy","small","1024","2","48000","-16","experiment","5_3_add_true.jpg","17","odd","legacy","134048","NA","101716","NA","NA","2701","NA","2718","83828","134048","136248","44191","80736","2702","mousetracking operator preview effect","0","0","0","no","true","no","1680"
"negative","undefined","1","undefined","undefined","white","no","legacy","legacy","legacy","0","relative","undefined","undefined","13","NA","0","0","0","0","0","0","0","29","29","0","15","0","no","04/13/19 10:25:37","A simple template for the mouse-tracking paradigm","yes","Experiment-TF.osexp","C:\Users\Kristen\Documents\opPreviewExperiment-master\procedure","no","mono","no","24","no","black","no","yes","1050","legacy","13","15","C:/Users/Kristen/Documents/opPreviewExperiment-master/procedure/subject-17.csv","legacy","Kafkaesque Koffka","3.2.6","mult","0","l","NA","NA","a","a","17888","NA","NA","41472","17888","2","1189","legacy","small","1024","2","48000","-16","experiment","5_3_mult_FI.jpg","17","odd","legacy","136268","NA","101716","NA","NA","2701","NA","2718","83828","136268","138631","44191","80736","2702","mousetracking operator preview effect","0","0","0","no","false","no","1680"
"neutral","undefined","1","undefined","undefined","white","no","legacy","legacy","legacy","0","relative","undefined","undefined","14","NA","0","0","0","0","0","0","0","30","30","0","15","0","no","04/13/19 10:25:37","A simple template for the mouse-tracking paradigm","yes","Experiment-TF.osexp","C:\Users\Kristen\Documents\opPreviewExperiment-master\procedure","no","mono","no","24","no","black","no","yes","1050","legacy","14","15","C:/Users/Kristen/Documents/opPreviewExperiment-master/procedure/subject-17.csv","legacy","Kafkaesque Koffka","3.2.6","mult","0","a","NA","NA","a","a","17888","NA","NA","41472","17888","2","1394","legacy","small","1024","2","48000","-16","experiment","3_6_mult_true.jpg","17","odd","legacy","138658","NA","101716","NA","NA","2701","NA","2718","83828","138658","141051","44191","80736","2702","mousetracking operator preview effect","0","0","0","no","true","no","1680"
"negative","undefined","1","undefined","undefined","white","no","legacy","legacy","legacy","0","relative","undefined","undefined","15","NA","0","0","0","0","0","0","0","31","31","0","15","0","no","04/13/19 10:25:37","A simple template for the mouse-tracking paradigm","yes","Experiment-TF.osexp","C:\Users\Kristen\Documents\opPreviewExperiment-master\procedure","no","mono","no","24","no","black","no","yes","1050","legacy","15","15","C:/Users/Kristen/Documents/opPreviewExperiment-master/procedure/subject-17.csv","legacy","Kafkaesque Koffka","3.2.6","add","0","l","NA","NA","a","a","17888","NA","NA","41472","17888","2","1553","legacy","small","1024","2","48000","-16","experiment","3_6_add_FNI.jpg","17","odd","legacy","141073","NA","101716","NA","NA","2701","NA","2718","83828","141073","143767","44191","80736","2702","mousetracking operator preview effect","0","0","0","no","false","no","1680"
"neutral","undefined","1","undefined","undefined","white","no","legacy","legacy","legacy","0","relative","undefined","undefined","16","NA","0","0","0","0","0","0","0","32","32","0","15","0","no","04/13/19 10:25:37","A simple template for the mouse-tracking paradigm","yes","Experiment-TF.osexp","C:\Users\Kristen\Documents\opPreviewExperiment-master\procedure","no","mono","no","24","no","black","no","yes","1050","legacy","16","15","C:/Users/Kristen/Documents/opPreviewExperiment-master/procedure/subject-17.csv","legacy","Kafkaesque Koffka","3.2.6","add","0","l","NA","NA","a","a","17888","NA","NA","41472","17888","2","1474","legacy","large","1024","2","48000","-16","experiment","6_8_add_FI.jpg","17","odd","legacy","143790","NA","101716","NA","NA","2701","NA","2718","83828","143790","146257","44191","80736","2702","mousetracking operator preview effect","0","0","0","no","false","no","1680"
"negative","undefined","1","undefined","undefined","white","no","legacy","legacy","legacy","0","relative","undefined","undefined","17","NA","0","0","0","0","0","0","0","33","33","0","15","0","no","04/13/19 10:25:37","A simple template for the mouse-tracking paradigm","yes","Experiment-TF.osexp","C:\Users\Kristen\Documents\opPreviewExperiment-master\procedure","no","mono","no","24","no","black","no","yes","1050","legacy","17","15","C:/Users/Kristen/Documents/opPreviewExperiment-master/procedure/subject-17.csv","legacy","Kafkaesque Koffka","3.2.6","mult","0","l","NA","NA","a","a","17888","NA","NA","41472","17888","2","1167","legacy","large","1024","2","48000","-16","experiment","9_7_mult_FI.jpg","17","odd","legacy","146277","NA","101716","NA","NA","2701","NA","2718","83828","146277","148612","44191","80736","2702","mousetracking operator preview effect","0","0","0","no","false","no","1680"
"negative","undefined","1","undefined","undefined","white","no","legacy","legacy","legacy","0","relative","undefined","undefined","18","NA","0","0","0","0","0","0","0","34","34","0","15","0","no","04/13/19 10:25:37","A simple template for the mouse-tracking paradigm","yes","Experiment-TF.osexp","C:\Users\Kristen\Documents\opPreviewExperiment-master\procedure","no","mono","no","24","no","black","no","yes","1050","legacy","18","15","C:/Users/Kristen/Documents/opPreviewExperiment-master/procedure/subject-17.csv","legacy","Kafkaesque Koffka","3.2.6","add","0","a","NA","NA","a","a","17888","NA","NA","41472","17888","2","1062","legacy","small","1024","2","48000","-16","experiment","3_6_add_true.jpg","17","odd","legacy","148643","NA","101716","NA","NA","2701","NA","2718","83828","148643","150884","44191","80736","2702","mousetracking operator preview effect","0","0","0","no","true","no","1680"
"negative","undefined","1","undefined","undefined","white","no","legacy","legacy","legacy","0","relative","undefined","undefined","19","NA","0","0","0","0","0","0","0","35","35","0","15","0","no","04/13/19 10:25:37","A simple template for the mouse-tracking paradigm","yes","Experiment-TF.osexp","C:\Users\Kristen\Documents\opPreviewExperiment-master\procedure","no","mono","no","24","no","black","no","yes","1050","legacy","19","15","C:/Users/Kristen/Documents/opPreviewExperiment-master/procedure/subject-17.csv","legacy","Kafkaesque Koffka","3.2.6","mult","0","l","NA","NA","a","a","17888","NA","NA","41472","17888","2","1283","legacy","small","1024","2","48000","-16","experiment","5_3_mult_FNI.jpg","17","odd","legacy","150906","NA","101716","NA","NA","2701","NA","2718","83828","150906","153337","44191","80736","2702","mousetracking operator preview effect","0","0","0","no","false","no","1680"
"neutral","undefined","1","undefined","undefined","white","no","legacy","legacy","legacy","0","relative","undefined","undefined","20","NA","0","0","0","0","0","0","0","36","36","0","15","0","no","04/13/19 10:25:37","A simple template for the mouse-tracking paradigm","yes","Experiment-TF.osexp","C:\Users\Kristen\Documents\opPreviewExperiment-master\procedure","no","mono","no","24","no","black","no","yes","1050","legacy","20","15","C:/Users/Kristen/Documents/opPreviewExperiment-master/procedure/subject-17.csv","legacy","Kafkaesque Koffka","3.2.6","mult","0","a","NA","NA","a","a","17888","NA","NA","41472","17888","2","900","legacy","small","1024","2","48000","-16","experiment","5_3_mult_true.jpg","17","odd","legacy","153368","NA","101716","NA","NA","2701","NA","2718","83828","153368","155266","44191","80736","2702","mousetracking operator preview effect","0","0","0","no","true","no","1680"
"neutral","undefined","1","undefined","undefined","white","no","legacy","legacy","legacy","0","relative","undefined","undefined","21","NA","0","0","0","0","0","0","0","37","37","0","15","0","no","04/13/19 10:25:37","A simple template for the mouse-tracking paradigm","yes","Experiment-TF.osexp","C:\Users\Kristen\Documents\opPreviewExperiment-master\procedure","no","mono","no","24","no","black","no","yes","1050","legacy","21","15","C:/Users/Kristen/Documents/opPreviewExperiment-master/procedure/subject-17.csv","legacy","Kafkaesque Koffka","3.2.6","mult","0","l","NA","NA","a","a","17888","NA","NA","41472","17888","2","1681","legacy","large","1024","2","48000","-16","experiment","8_4_mult_FNI.jpg","17","odd","legacy","155282","NA","101716","NA","NA","2701","NA","2718","83828","155282","157965","44191","80736","2702","mousetracking operator preview effect","0","0","0","no","false","no","1680"
"negative","undefined","1","undefined","undefined","white","no","legacy","legacy","legacy","0","relative","undefined","undefined","22","NA","0","0","0","0","0","0","0","38","38","0","15","0","no","04/13/19 10:25:37","A simple template for the mouse-tracking paradigm","yes","Experiment-TF.osexp","C:\Users\Kristen\Documents\opPreviewExperiment-master\procedure","no","mono","no","24","no","black","no","yes","1050","legacy","22","15","C:/Users/Kristen/Documents/opPreviewExperiment-master/procedure/subject-17.csv","legacy","Kafkaesque Koffka","3.2.6","add","0","l","NA","NA","a","a","17888","NA","NA","41472","17888","2","1174","legacy","large","1024","2","48000","-16","experiment","8_4_add_FI.jpg","17","odd","legacy","157998","NA","101716","NA","NA","2701","NA","2718","83828","157998","160344","44191","80736","2702","mousetracking operator preview effect","0","0","0","no","false","no","1680"
"negative","undefined","1","undefined","undefined","white","no","legacy","legacy","legacy","0","relative","undefined","undefined","23","NA","0","0","0","0","0","0","0","39","39","0","15","0","no","04/13/19 10:25:37","A simple template for the mouse-tracking paradigm","yes","Experiment-TF.osexp","C:\Users\Kristen\Documents\opPreviewExperiment-master\procedure","no","mono","no","24","no","black","no","yes","1050","legacy","23","15","C:/Users/Kristen/Documents/opPreviewExperiment-master/procedure/subject-17.csv","legacy","Kafkaesque Koffka","3.2.6","mult","0","a","NA","NA","a","a","17888","NA","NA","41472","17888","2","959","legacy","small","1024","2","48000","-16","experiment","5_3_mult_true.jpg","17","odd","legacy","160364","NA","101716","NA","NA","2701","NA","2718","83828","160364","162476","44191","80736","2702","mousetracking operator preview effect","0","0","0","no","true","no","1680"
"negative","undefined","1","undefined","undefined","white","no","legacy","legacy","legacy","0","relative","undefined","undefined","24","NA","0","0","0","0","0","0","0","40","40","0","15","0","no","04/13/19 10:25:37","A simple template for the mouse-tracking paradigm","yes","Experiment-TF.osexp","C:\Users\Kristen\Documents\opPreviewExperiment-master\procedure","no","mono","no","24","no","black","no","yes","1050","legacy","24","15","C:/Users/Kristen/Documents/opPreviewExperiment-master/procedure/subject-17.csv","legacy","Kafkaesque Koffka","3.2.6","mult","0","l","NA","NA","a","a","17888","NA","NA","41472","17888","2","703","legacy","large","1024","2","48000","-16","experiment","4_9_mult_FI.jpg","17","odd","legacy","162503","NA","101716","NA","NA","2701","NA","2718","83828","162503","164384","44191","80736","2702","mousetracking operator preview effect","0","0","0","no","false","no","1680"
"neutral","undefined","1","undefined","undefined","white","no","legacy","legacy","legacy","0","relative","undefined","undefined","25","NA","0","0","0","0","0","0","0","41","41","0","15","0","no","04/13/19 10:25:37","A simple template for the mouse-tracking paradigm","yes","Experiment-TF.osexp","C:\Users\Kristen\Documents\opPreviewExperiment-master\procedure","no","mono","no","24","no","black","no","yes","1050","legacy","25","15","C:/Users/Kristen/Documents/opPreviewExperiment-master/procedure/subject-17.csv","legacy","Kafkaesque Koffka","3.2.6","mult","0","l","NA","NA","a","a","17888","NA","NA","41472","17888","2","922","legacy","small","1024","2","48000","-16","experiment","5_3_mult_FNI.jpg","17","odd","legacy","164411","NA","101716","NA","NA","2701","NA","2718","83828","164411","166318","44191","80736","2702","mousetracking operator preview effect","0","0","0","no","false","no","1680"
"neutral","undefined","1","undefined","undefined","white","no","legacy","legacy","legacy","0","relative","undefined","undefined","26","NA","0","0","0","0","0","0","0","42","42","0","15","0","no","04/13/19 10:25:37","A simple template for the mouse-tracking paradigm","yes","Experiment-TF.osexp","C:\Users\Kristen\Documents\opPreviewExperiment-master\procedure","no","mono","no","24","no","black","no","yes","1050","legacy","26","15","C:/Users/Kristen/Documents/opPreviewExperiment-master/procedure/subject-17.csv","legacy","Kafkaesque Koffka","3.2.6","mult","0","l","NA","NA","a","a","17888","NA","NA","41472","17888","2","792","legacy","large","1024","2","48000","-16","experiment","4_9_mult_FI.jpg","17","odd","legacy","166343","NA","101716","NA","NA","2701","NA","2718","83828","166343","168118","44191","80736","2702","mousetracking operator preview effect","0","0","0","no","false","no","1680"
"negative","undefined","1","undefined","undefined","white","no","legacy","legacy","legacy","0","relative","undefined","undefined","27","NA","0","0","0","0","0","0","0","43","43","0","15","0","no","04/13/19 10:25:37","A simple template for the mouse-tracking paradigm","yes","Experiment-TF.osexp","C:\Users\Kristen\Documents\opPreviewExperiment-master\procedure","no","mono","no","24","no","black","no","yes","1050","legacy","27","15","C:/Users/Kristen/Documents/opPreviewExperiment-master/procedure/subject-17.csv","legacy","Kafkaesque Koffka","3.2.6","add","0","l","NA","NA","a","a","17888","NA","NA","41472","17888","2","1141","legacy","small","1024","2","48000","-16","experiment","2_7_add_FNI.jpg","17","odd","legacy","168132","NA","101716","NA","NA","2701","NA","2718","83828","168132","170437","44191","80736","2702","mousetracking operator preview effect","0","0","0","no","false","no","1680"
"negative","undefined","0","undefined","undefined","white","no","legacy","legacy","legacy","0","relative","undefined","undefined","28","NA","0","0","0","0","0","0","0","44","44","0","15","0","no","04/13/19 10:25:37","A simple template for the mouse-tracking paradigm","yes","Experiment-TF.osexp","C:\Users\Kristen\Documents\opPreviewExperiment-master\procedure","no","mono","no","24","no","black","no","yes","1050","legacy","28","15","C:/Users/Kristen/Documents/opPreviewExperiment-master/procedure/subject-17.csv","legacy","Kafkaesque Koffka","3.2.6","add","0","l","NA","NA","a","a","17888","NA","NA","41472","17888","2","640","legacy","large","1024","2","48000","-16","experiment","4_9_add_true.jpg","17","odd","legacy","170472","NA","101716","NA","NA","2701","NA","2718","83828","170472","173297","44191","80736","2702","mousetracking operator preview effect","0","0","0","no","true","no","1680"
"neutral","undefined","1","undefined","undefined","white","no","legacy","legacy","legacy","0","relative","undefined","undefined","29","NA","0","0","0","0","0","0","0","45","45","0","15","0","no","04/13/19 10:25:37","A simple template for the mouse-tracking paradigm","yes","Experiment-TF.osexp","C:\Users\Kristen\Documents\opPreviewExperiment-master\procedure","no","mono","no","24","no","black","no","yes","1050","legacy","29","15","C:/Users/Kristen/Documents/opPreviewExperiment-master/procedure/subject-17.csv","legacy","Kafkaesque Koffka","3.2.6","mult","0","a","NA","NA","a","a","17888","NA","NA","41472","17888","2","887","legacy","small","1024","2","48000","-16","experiment","2_7_mult_true.jpg","17","odd","legacy","173335","NA","101716","NA","NA","2701","NA","2718","83828","173335","175220","44191","80736","2702","mousetracking operator preview effect","0","0","0","no","true","no","1680"
"neutral","undefined","0","undefined","undefined","white","no","legacy","legacy","legacy","0","relative","undefined","undefined","30","NA","0","0","0","0","0","0","0","46","46","0","15","0","no","04/13/19 10:25:37","A simple template for the mouse-tracking paradigm","yes","Experiment-TF.osexp","C:\Users\Kristen\Documents\opPreviewExperiment-master\procedure","no","mono","no","24","no","black","no","yes","1050","legacy","30","15","C:/Users/Kristen/Documents/opPreviewExperiment-master/procedure/subject-17.csv","legacy","Kafkaesque Koffka","3.2.6","mult","0","l","NA","NA","a","a","17888","NA","NA","41472","17888","2","971","legacy","small","1024","2","48000","-16","experiment","8_2_mult_true.jpg","17","odd","legacy","175241","NA","101716","NA","NA","2701","NA","2718","83828","175241","178212","44191","80736","2702","mousetracking operator preview effect","0","0","0","no","true","no","1680"
"neutral","undefined","1","undefined","undefined","white","no","legacy","legacy","legacy","0","relative","undefined","undefined","31","NA","0","0","0","0","0","0","0","47","47","0","15","0","no","04/13/19 10:25:37","A simple template for the mouse-tracking paradigm","yes","Experiment-TF.osexp","C:\Users\Kristen\Documents\opPreviewExperiment-master\procedure","no","mono","no","24","no","black","no","yes","1050","legacy","31","15","C:/Users/Kristen/Documents/opPreviewExperiment-master/procedure/subject-17.csv","legacy","Kafkaesque Koffka","3.2.6","mult","0","l","NA","NA","a","a","17888","NA","NA","41472","17888","2","948","legacy","small","1024","2","48000","-16","experiment","3_6_mult_FNI.jpg","17","odd","legacy","178250","NA","101716","NA","NA","2701","NA","2718","83828","178250","180193","44191","80736","2702","mousetracking operator preview effect","0","0","0","no","false","no","1680"
"neutral","undefined","1","undefined","undefined","white","no","legacy","legacy","legacy","0","relative","undefined","undefined","32","NA","0","0","0","0","0","0","0","48","48","0","15","0","no","04/13/19 10:25:37","A simple template for the mouse-tracking paradigm","yes","Experiment-TF.osexp","C:\Users\Kristen\Documents\opPreviewExperiment-master\procedure","no","mono","no","24","no","black","no","yes","1050","legacy","32","15","C:/Users/Kristen/Documents/opPreviewExperiment-master/procedure/subject-17.csv","legacy","Kafkaesque Koffka","3.2.6","mult","0","l","NA","NA","a","a","17888","NA","NA","41472","17888","2","976","legacy","small","1024","2","48000","-16","experiment","8_2_mult_FNI.jpg","17","odd","legacy","180223","NA","101716","NA","NA","2701","NA","2718","83828","180223","182202","44191","80736","2702","mousetracking operator preview effect","0","0","0","no","false","no","1680"
"neutral","undefined","1","undefined","undefined","white","no","legacy","legacy","legacy","0","relative","undefined","undefined","33","NA","0","0","0","0","0","0","0","49","49","0","15","0","no","04/13/19 10:25:37","A simple template for the mouse-tracking paradigm","yes","Experiment-TF.osexp","C:\Users\Kristen\Documents\opPreviewExperiment-master\procedure","no","mono","no","24","no","black","no","yes","1050","legacy","33","15","C:/Users/Kristen/Documents/opPreviewExperiment-master/procedure/subject-17.csv","legacy","Kafkaesque Koffka","3.2.6","mult","0","l","NA","NA","a","a","17888","NA","NA","41472","17888","2","1151","legacy","small","1024","2","48000","-16","experiment","8_2_mult_FI.jpg","17","odd","legacy","182224","NA","101716","NA","NA","2701","NA","2718","83828","182224","184373","44191","80736","2702","mousetracking operator preview effect","0","0","0","no","false","no","1680"
"negative","undefined","1","undefined","undefined","white","no","legacy","legacy","legacy","0","relative","undefined","undefined","34","NA","0","0","0","0","0","0","0","50","50","0","15","0","no","04/13/19 10:25:37","A simple template for the mouse-tracking paradigm","yes","Experiment-TF.osexp","C:\Users\Kristen\Documents\opPreviewExperiment-master\procedure","no","mono","no","24","no","black","no","yes","1050","legacy","34","15","C:/Users/Kristen/Documents/opPreviewExperiment-master/procedure/subject-17.csv","legacy","Kafkaesque Koffka","3.2.6","add","0","a","NA","NA","a","a","17888","NA","NA","41472","17888","2","724","legacy","small","1024","2","48000","-16","experiment","8_2_add_true.jpg","17","odd","legacy","184403","NA","101716","NA","NA","2701","NA","2718","83828","184403","186273","44191","80736","2702","mousetracking operator preview effect","0","0","0","no","true","no","1680"
"neutral","undefined","1","undefined","undefined","white","no","legacy","legacy","legacy","0","relative","undefined","undefined","35","NA","0","0","0","0","0","0","0","51","51","0","15","0","no","04/13/19 10:25:37","A simple template for the mouse-tracking paradigm","yes","Experiment-TF.osexp","C:\Users\Kristen\Documents\opPreviewExperiment-master\procedure","no","mono","no","24","no","black","no","yes","1050","legacy","35","15","C:/Users/Kristen/Documents/opPreviewExperiment-master/procedure/subject-17.csv","legacy","Kafkaesque Koffka","3.2.6","add","0","a","NA","NA","a","a","17888","NA","NA","41472","17888","2","935","legacy","large","1024","2","48000","-16","experiment","9_7_add_true.jpg","17","odd","legacy","186293","NA","101716","NA","NA","2701","NA","2718","83828","186293","188205","44191","80736","2702","mousetracking operator preview effect","0","0","0","no","true","no","1680"
"negative","undefined","1","undefined","undefined","white","no","legacy","legacy","legacy","0","relative","undefined","undefined","36","NA","0","0","0","0","0","0","0","52","52","0","15","0","no","04/13/19 10:25:37","A simple template for the mouse-tracking paradigm","yes","Experiment-TF.osexp","C:\Users\Kristen\Documents\opPreviewExperiment-master\procedure","no","mono","no","24","no","black","no","yes","1050","legacy","36","15","C:/Users/Kristen/Documents/opPreviewExperiment-master/procedure/subject-17.csv","legacy","Kafkaesque Koffka","3.2.6","mult","0","a","NA","NA","a","a","17888","NA","NA","41472","17888","2","1544","legacy","large","1024","2","48000","-16","experiment","9_7_mult_true.jpg","17","odd","legacy","188227","NA","101716","NA","NA","2701","NA","2718","83828","188227","190943","44191","80736","2702","mousetracking operator preview effect","0","0","0","no","true","no","1680"
"negative","undefined","1","undefined","undefined","white","no","legacy","legacy","legacy","0","relative","undefined","undefined","37","NA","0","0","0","0","0","0","0","53","53","0","15","0","no","04/13/19 10:25:37","A simple template for the mouse-tracking paradigm","yes","Experiment-TF.osexp","C:\Users\Kristen\Documents\opPreviewExperiment-master\procedure","no","mono","no","24","no","black","no","yes","1050","legacy","37","15","C:/Users/Kristen/Documents/opPreviewExperiment-master/procedure/subject-17.csv","legacy","Kafkaesque Koffka","3.2.6","mult","0","l","NA","NA","a","a","17888","NA","NA","41472","17888","2","1077","legacy","large","1024","2","48000","-16","experiment","4_9_mult_FNI.jpg","17","odd","legacy","190969","NA","101716","NA","NA","2701","NA","2718","83828","190969","193219","44191","80736","2702","mousetracking operator preview effect","0","0","0","no","false","no","1680"
"neutral","undefined","1","undefined","undefined","white","no","legacy","legacy","legacy","0","relative","undefined","undefined","38","NA","0","0","0","0","0","0","0","54","54","0","15","0","no","04/13/19 10:25:37","A simple template for the mouse-tracking paradigm","yes","Experiment-TF.osexp","C:\Users\Kristen\Documents\opPreviewExperiment-master\procedure","no","mono","no","24","no","black","no","yes","1050","legacy","38","15","C:/Users/Kristen/Documents/opPreviewExperiment-master/procedure/subject-17.csv","legacy","Kafkaesque Koffka","3.2.6","add","0","l","NA","NA","a","a","17888","NA","NA","41472","17888","2","1860","legacy","large","1024","2","48000","-16","experiment","8_4_add_FNI.jpg","17","odd","legacy","193236","NA","101716","NA","NA","2701","NA","2718","83828","193236","196100","44191","80736","2702","mousetracking operator preview effect","0","0","0","no","false","no","1680"
"negative","undefined","1","undefined","undefined","white","no","legacy","legacy","legacy","0","relative","undefined","undefined","39","NA","0","0","0","0","0","0","0","55","55","0","15","0","no","04/13/19 10:25:37","A simple template for the mouse-tracking paradigm","yes","Experiment-TF.osexp","C:\Users\Kristen\Documents\opPreviewExperiment-master\procedure","no","mono","no","24","no","black","no","yes","1050","legacy","39","15","C:/Users/Kristen/Documents/opPreviewExperiment-master/procedure/subject-17.csv","legacy","Kafkaesque Koffka","3.2.6","add","0","l","NA","NA","a","a","17888","NA","NA","41472","17888","2","1000","legacy","small","1024","2","48000","-16","experiment","8_2_add_FNI.jpg","17","odd","legacy","196120","NA","101716","NA","NA","2701","NA","2718","83828","196120","198290","44191","80736","2702","mousetracking operator preview effect","0","0","0","no","false","no","1680"
"negative","undefined","1","undefined","undefined","white","no","legacy","legacy","legacy","0","relative","undefined","undefined","40","NA","0","0","0","0","0","0","0","56","56","0","15","0","no","04/13/19 10:25:37","A simple template for the mouse-tracking paradigm","yes","Experiment-TF.osexp","C:\Users\Kristen\Documents\opPreviewExperiment-master\procedure","no","mono","no","24","no","black","no","yes","1050","legacy","40","15","C:/Users/Kristen/Documents/opPreviewExperiment-master/procedure/subject-17.csv","legacy","Kafkaesque Koffka","3.2.6","mult","0","a","NA","NA","a","a","17888","NA","NA","41472","17888","2","1161","legacy","small","1024","2","48000","-16","experiment","2_7_mult_true.jpg","17","odd","legacy","198310","NA","101716","NA","NA","2701","NA","2718","83828","198310","200626","44191","80736","2702","mousetracking operator preview effect","0","0","0","no","true","no","1680"
"negative","undefined","1","undefined","undefined","white","no","legacy","legacy","legacy","0","relative","undefined","undefined","41","NA","0","0","0","0","0","0","0","57","57","0","15","0","no","04/13/19 10:25:37","A simple template for the mouse-tracking paradigm","yes","Experiment-TF.osexp","C:\Users\Kristen\Documents\opPreviewExperiment-master\procedure","no","mono","no","24","no","black","no","yes","1050","legacy","41","15","C:/Users/Kristen/Documents/opPreviewExperiment-master/procedure/subject-17.csv","legacy","Kafkaesque Koffka","3.2.6","mult","0","a","NA","NA","a","a","17888","NA","NA","41472","17888","2","1128","legacy","small","1024","2","48000","-16","experiment","8_2_mult_true.jpg","17","odd","legacy","200644","NA","101716","NA","NA","2701","NA","2718","83828","200644","202909","44191","80736","2702","mousetracking operator preview effect","0","0","0","no","true","no","1680"
"negative","undefined","1","undefined","undefined","white","no","legacy","legacy","legacy","0","relative","undefined","undefined","42","NA","0","0","0","0","0","0","0","58","58","0","15","0","no","04/13/19 10:25:37","A simple template for the mouse-tracking paradigm","yes","Experiment-TF.osexp","C:\Users\Kristen\Documents\opPreviewExperiment-master\procedure","no","mono","no","24","no","black","no","yes","1050","legacy","42","15","C:/Users/Kristen/Documents/opPreviewExperiment-master/procedure/subject-17.csv","legacy","Kafkaesque Koffka","3.2.6","mult","0","l","NA","NA","a","a","17888","NA","NA","41472","17888","2","1112","legacy","large","1024","2","48000","-16","experiment","6_8_mult_FNI.jpg","17","odd","legacy","202930","NA","101716","NA","NA","2701","NA","2718","83828","202930","205186","44191","80736","2702","mousetracking operator preview effect","0","0","0","no","false","no","1680"
"neutral","undefined","1","undefined","undefined","white","no","legacy","legacy","legacy","0","relative","undefined","undefined","43","NA","0","0","0","0","0","0","0","59","59","0","15","0","no","04/13/19 10:25:37","A simple template for the mouse-tracking paradigm","yes","Experiment-TF.osexp","C:\Users\Kristen\Documents\opPreviewExperiment-master\procedure","no","mono","no","24","no","black","no","yes","1050","legacy","43","15","C:/Users/Kristen/Documents/opPreviewExperiment-master/procedure/subject-17.csv","legacy","Kafkaesque Koffka","3.2.6","mult","0","a","NA","NA","a","a","17888","NA","NA","41472","17888","2","776","legacy","small","1024","2","48000","-16","experiment","5_3_mult_true.jpg","17","odd","legacy","205208","NA","101716","NA","NA","2701","NA","2718","83828","205208","206956","44191","80736","2702","mousetracking operator preview effect","0","0","0","no","true","no","1680"
"negative","undefined","1","undefined","undefined","white","no","legacy","legacy","legacy","0","relative","undefined","undefined","44","NA","0","0","0","0","0","0","0","60","60","0","15","0","no","04/13/19 10:25:37","A simple template for the mouse-tracking paradigm","yes","Experiment-TF.osexp","C:\Users\Kristen\Documents\opPreviewExperiment-master\procedure","no","mono","no","24","no","black","no","yes","1050","legacy","44","15","C:/Users/Kristen/Documents/opPreviewExperiment-master/procedure/subject-17.csv","legacy","Kafkaesque Koffka","3.2.6","add","0","a","NA","NA","a","a","17888","NA","NA","41472","17888","2","1170","legacy","small","1024","2","48000","-16","experiment","2_7_add_true.jpg","17","odd","legacy","206981","NA","101716","NA","NA","2701","NA","2718","83828","206981","209302","44191","80736","2702","mousetracking operator preview effect","0","0","0","no","true","no","1680"
"negative","undefined","1","undefined","undefined","white","no","legacy","legacy","legacy","0","relative","undefined","undefined","45","NA","0","0","0","0","0","0","0","61","61","0","15","0","no","04/13/19 10:25:37","A simple template for the mouse-tracking paradigm","yes","Experiment-TF.osexp","C:\Users\Kristen\Documents\opPreviewExperiment-master\procedure","no","mono","no","24","no","black","no","yes","1050","legacy","45","15","C:/Users/Kristen/Documents/opPreviewExperiment-master/procedure/subject-17.csv","legacy","Kafkaesque Koffka","3.2.6","mult","0","a","NA","NA","a","a","17888","NA","NA","41472","17888","2","810","legacy","large","1024","2","48000","-16","experiment","6_8_mult_true.jpg","17","odd","legacy","209323","NA","101716","NA","NA","2701","NA","2718","83828","209323","211297","44191","80736","2702","mousetracking operator preview effect","0","0","0","no","true","no","1680"
"negative","undefined","1","undefined","undefined","white","no","legacy","legacy","legacy","0","relative","undefined","undefined","46","NA","0","0","0","0","0","0","0","62","62","0","15","0","no","04/13/19 10:25:37","A simple template for the mouse-tracking paradigm","yes","Experiment-TF.osexp","C:\Users\Kristen\Documents\opPreviewExperiment-master\procedure","no","mono","no","24","no","black","no","yes","1050","legacy","46","15","C:/Users/Kristen/Documents/opPreviewExperiment-master/procedure/subject-17.csv","legacy","Kafkaesque Koffka","3.2.6","add","0","a","NA","NA","a","a","17888","NA","NA","41472","17888","2","1023","legacy","small","1024","2","48000","-16","experiment","5_3_add_true.jpg","17","odd","legacy","211322","NA","101716","NA","NA","2701","NA","2718","83828","211322","213504","44191","80736","2702","mousetracking operator preview effect","0","0","0","no","true","no","1680"
"negative","undefined","1","undefined","undefined","white","no","legacy","legacy","legacy","0","relative","undefined","undefined","47","NA","0","0","0","0","0","0","0","63","63","0","15","0","no","04/13/19 10:25:37","A simple template for the mouse-tracking paradigm","yes","Experiment-TF.osexp","C:\Users\Kristen\Documents\opPreviewExperiment-master\procedure","no","mono","no","24","no","black","no","yes","1050","legacy","47","15","C:/Users/Kristen/Documents/opPreviewExperiment-master/procedure/subject-17.csv","legacy","Kafkaesque Koffka","3.2.6","add","0","a","NA","NA","a","a","17888","NA","NA","41472","17888","2","1209","legacy","large","1024","2","48000","-16","experiment","9_7_add_true.jpg","17","odd","legacy","213527","NA","101716","NA","NA","2701","NA","2718","83828","213527","215894","44191","80736","2702","mousetracking operator preview effect","0","0","0","no","true","no","1680"
"negative","undefined","1","undefined","undefined","white","no","legacy","legacy","legacy","0","relative","undefined","undefined","48","NA","0","0","0","0","0","0","0","64","64","0","15","0","no","04/13/19 10:25:37","A simple template for the mouse-tracking paradigm","yes","Experiment-TF.osexp","C:\Users\Kristen\Documents\opPreviewExperiment-master\procedure","no","mono","no","24","no","black","no","yes","1050","legacy","48","15","C:/Users/Kristen/Documents/opPreviewExperiment-master/procedure/subject-17.csv","legacy","Kafkaesque Koffka","3.2.6","mult","0","a","NA","NA","a","a","17888","NA","NA","41472","17888","2","1302","legacy","large","1024","2","48000","-16","experiment","4_9_mult_true.jpg","17","odd","legacy","215909","NA","101716","NA","NA","2701","NA","2718","83828","215909","218371","44191","80736","2702","mousetracking operator preview effect","0","0","0","no","true","no","1680"
"negative","undefined","1","undefined","undefined","white","no","legacy","legacy","legacy","0","relative","undefined","undefined","49","NA","0","0","0","0","0","0","0","65","65","0","15","0","no","04/13/19 10:25:37","A simple template for the mouse-tracking paradigm","yes","Experiment-TF.osexp","C:\Users\Kristen\Documents\opPreviewExperiment-master\procedure","no","mono","no","24","no","black","no","yes","1050","legacy","49","15","C:/Users/Kristen/Documents/opPreviewExperiment-master/procedure/subject-17.csv","legacy","Kafkaesque Koffka","3.2.6","mult","0","l","NA","NA","a","a","17888","NA","NA","41472","17888","2","1566","legacy","small","1024","2","48000","-16","experiment","3_6_mult_FI.jpg","17","odd","legacy","218392","NA","101716","NA","NA","2701","NA","2718","83828","218392","221124","44191","80736","2702","mousetracking operator preview effect","0","0","0","no","false","no","1680"
"negative","undefined","1","undefined","undefined","white","no","legacy","legacy","legacy","0","relative","undefined","undefined","50","NA","0","0","0","0","0","0","0","66","66","0","15","0","no","04/13/19 10:25:37","A simple template for the mouse-tracking paradigm","yes","Experiment-TF.osexp","C:\Users\Kristen\Documents\opPreviewExperiment-master\procedure","no","mono","no","24","no","black","no","yes","1050","legacy","50","15","C:/Users/Kristen/Documents/opPreviewExperiment-master/procedure/subject-17.csv","legacy","Kafkaesque Koffka","3.2.6","mult","0","a","NA","NA","a","a","17888","NA","NA","41472","17888","2","725","legacy","small","1024","2","48000","-16","experiment","5_3_mult_true.jpg","17","odd","legacy","221147","NA","101716","NA","NA","2701","NA","2718","83828","221147","223026","44191","80736","2702","mousetracking operator preview effect","0","0","0","no","true","no","1680"
"neutral","undefined","1","undefined","undefined","white","no","legacy","legacy","legacy","0","relative","undefined","undefined","51","NA","0","0","0","0","0","0","0","67","67","0","15","0","no","04/13/19 10:25:37","A simple template for the mouse-tracking paradigm","yes","Experiment-TF.osexp","C:\Users\Kristen\Documents\opPreviewExperiment-master\procedure","no","mono","no","24","no","black","no","yes","1050","legacy","51","15","C:/Users/Kristen/Documents/opPreviewExperiment-master/procedure/subject-17.csv","legacy","Kafkaesque Koffka","3.2.6","add","0","l","NA","NA","a","a","17888","NA","NA","41472","17888","2","1073","legacy","large","1024","2","48000","-16","experiment","6_8_add_FNI.jpg","17","odd","legacy","223058","NA","101716","NA","NA","2701","NA","2718","83828","223058","225114","44191","80736","2702","mousetracking operator preview effect","0","0","0","no","false","no","1680"
"neutral","undefined","1","undefined","undefined","white","no","legacy","legacy","legacy","0","relative","undefined","undefined","52","NA","0","0","0","0","0","0","0","68","68","0","15","0","no","04/13/19 10:25:37","A simple template for the mouse-tracking paradigm","yes","Experiment-TF.osexp","C:\Users\Kristen\Documents\opPreviewExperiment-master\procedure","no","mono","no","24","no","black","no","yes","1050","legacy","52","15","C:/Users/Kristen/Documents/opPreviewExperiment-master/procedure/subject-17.csv","legacy","Kafkaesque Koffka","3.2.6","mult","0","a","NA","NA","a","a","17888","NA","NA","41472","17888","2","835","legacy","large","1024","2","48000","-16","experiment","9_7_mult_true.jpg","17","odd","legacy","225135","NA","101716","NA","NA","2701","NA","2718","83828","225135","226949","44191","80736","2702","mousetracking operator preview effect","0","0","0","no","true","no","1680"
"negative","undefined","1","undefined","undefined","white","no","legacy","legacy","legacy","0","relative","undefined","undefined","53","NA","0","0","0","0","0","0","0","69","69","0","15","0","no","04/13/19 10:25:37","A simple template for the mouse-tracking paradigm","yes","Experiment-TF.osexp","C:\Users\Kristen\Documents\opPreviewExperiment-master\procedure","no","mono","no","24","no","black","no","yes","1050","legacy","53","15","C:/Users/Kristen/Documents/opPreviewExperiment-master/procedure/subject-17.csv","legacy","Kafkaesque Koffka","3.2.6","mult","0","a","NA","NA","a","a","17888","NA","NA","41472","17888","2","769","legacy","large","1024","2","48000","-16","experiment","8_4_mult_true.jpg","17","odd","legacy","226979","NA","101716","NA","NA","2701","NA","2718","83828","226979","228924","44191","80736","2702","mousetracking operator preview effect","0","0","0","no","true","no","1680"
"neutral","undefined","1","undefined","undefined","white","no","legacy","legacy","legacy","0","relative","undefined","undefined","54","NA","0","0","0","0","0","0","0","70","70","0","15","0","no","04/13/19 10:25:37","A simple template for the mouse-tracking paradigm","yes","Experiment-TF.osexp","C:\Users\Kristen\Documents\opPreviewExperiment-master\procedure","no","mono","no","24","no","black","no","yes","1050","legacy","54","15","C:/Users/Kristen/Documents/opPreviewExperiment-master/procedure/subject-17.csv","legacy","Kafkaesque Koffka","3.2.6","add","0","l","NA","NA","a","a","17888","NA","NA","41472","17888","2","964","legacy","large","1024","2","48000","-16","experiment","9_7_add_FNI.jpg","17","odd","legacy","228959","NA","101716","NA","NA","2701","NA","2718","83828","228959","230926","44191","80736","2702","mousetracking operator preview effect","0","0","0","no","false","no","1680"
"negative","undefined","1","undefined","undefined","white","no","legacy","legacy","legacy","0","relative","undefined","undefined","55","NA","0","0","0","0","0","0","0","71","71","0","15","0","no","04/13/19 10:25:37","A simple template for the mouse-tracking paradigm","yes","Experiment-TF.osexp","C:\Users\Kristen\Documents\opPreviewExperiment-master\procedure","no","mono","no","24","no","black","no","yes","1050","legacy","55","15","C:/Users/Kristen/Documents/opPreviewExperiment-master/procedure/subject-17.csv","legacy","Kafkaesque Koffka","3.2.6","add","0","a","NA","NA","a","a","17888","NA","NA","41472","17888","2","968","legacy","small","1024","2","48000","-16","experiment","2_7_add_true.jpg","17","odd","legacy","230952","NA","101716","NA","NA","2701","NA","2718","83828","230952","233071","44191","80736","2702","mousetracking operator preview effect","0","0","0","no","true","no","1680"
"neutral","undefined","1","undefined","undefined","white","no","legacy","legacy","legacy","0","relative","undefined","undefined","56","NA","0","0","0","0","0","0","0","72","72","0","15","0","no","04/13/19 10:25:37","A simple template for the mouse-tracking paradigm","yes","Experiment-TF.osexp","C:\Users\Kristen\Documents\opPreviewExperiment-master\procedure","no","mono","no","24","no","black","no","yes","1050","legacy","56","15","C:/Users/Kristen/Documents/opPreviewExperiment-master/procedure/subject-17.csv","legacy","Kafkaesque Koffka","3.2.6","mult","0","a","NA","NA","a","a","17888","NA","NA","41472","17888","2","801","legacy","large","1024","2","48000","-16","experiment","8_4_mult_true.jpg","17","odd","legacy","233092","NA","101716","NA","NA","2701","NA","2718","83828","233092","234840","44191","80736","2702","mousetracking operator preview effect","0","0","0","no","true","no","1680"
"neutral","undefined","0","undefined","undefined","white","no","legacy","legacy","legacy","0","relative","undefined","undefined","57","NA","0","0","0","0","0","0","0","73","73","0","15","0","no","04/13/19 10:25:37","A simple template for the mouse-tracking paradigm","yes","Experiment-TF.osexp","C:\Users\Kristen\Documents\opPreviewExperiment-master\procedure","no","mono","no","24","no","black","no","yes","1050","legacy","57","15","C:/Users/Kristen/Documents/opPreviewExperiment-master/procedure/subject-17.csv","legacy","Kafkaesque Koffka","3.2.6","add","0","a","NA","NA","a","a","17888","NA","NA","41472","17888","2","689","legacy","small","1024","2","48000","-16","experiment","5_3_add_FI.jpg","17","odd","legacy","234861","NA","101716","NA","NA","2701","NA","2718","83828","234861","237539","44191","80736","2702","mousetracking operator preview effect","0","0","0","no","false","no","1680"
"negative","undefined","1","undefined","undefined","white","no","legacy","legacy","legacy","0","relative","undefined","undefined","58","NA","0","0","0","0","0","0","0","74","74","0","15","0","no","04/13/19 10:25:37","A simple template for the mouse-tracking paradigm","yes","Experiment-TF.osexp","C:\Users\Kristen\Documents\opPreviewExperiment-master\procedure","no","mono","no","24","no","black","no","yes","1050","legacy","58","15","C:/Users/Kristen/Documents/opPreviewExperiment-master/procedure/subject-17.csv","legacy","Kafkaesque Koffka","3.2.6","add","0","l","NA","NA","a","a","17888","NA","NA","41472","17888","2","1061","legacy","large","1024","2","48000","-16","experiment","4_9_add_FNI.jpg","17","odd","legacy","237576","NA","101716","NA","NA","2701","NA","2718","83828","237576","239805","44191","80736","2702","mousetracking operator preview effect","0","0","0","no","false","no","1680"
"neutral","undefined","1","undefined","undefined","white","no","legacy","legacy","legacy","0","relative","undefined","undefined","59","NA","0","0","0","0","0","0","0","75","75","0","15","0","no","04/13/19 10:25:37","A simple template for the mouse-tracking paradigm","yes","Experiment-TF.osexp","C:\Users\Kristen\Documents\opPreviewExperiment-master\procedure","no","mono","no","24","no","black","no","yes","1050","legacy","59","15","C:/Users/Kristen/Documents/opPreviewExperiment-master/procedure/subject-17.csv","legacy","Kafkaesque Koffka","3.2.6","add","0","a","NA","NA","a","a","17888","NA","NA","41472","17888","2","1201","legacy","large","1024","2","48000","-16","experiment","6_8_add_true.jpg","17","odd","legacy","239826","NA","101716","NA","NA","2701","NA","2718","83828","239826","242004","44191","80736","2702","mousetracking operator preview effect","0","0","0","no","true","no","1680"
"negative","undefined","1","undefined","undefined","white","no","legacy","legacy","legacy","0","relative","undefined","undefined","60","NA","0","0","0","0","0","0","0","76","76","0","15","0","no","04/13/19 10:25:37","A simple template for the mouse-tracking paradigm","yes","Experiment-TF.osexp","C:\Users\Kristen\Documents\opPreviewExperiment-master\procedure","no","mono","no","24","no","black","no","yes","1050","legacy","60","15","C:/Users/Kristen/Documents/opPreviewExperiment-master/procedure/subject-17.csv","legacy","Kafkaesque Koffka","3.2.6","mult","0","l","NA","NA","a","a","17888","NA","NA","41472","17888","2","959","legacy","small","1024","2","48000","-16","experiment","2_7_mult_FI.jpg","17","odd","legacy","242027","NA","101716","NA","NA","2701","NA","2718","83828","242027","244131","44191","80736","2702","mousetracking operator preview effect","0","0","0","no","false","no","1680"
"neutral","undefined","1","undefined","undefined","white","no","legacy","legacy","legacy","0","relative","undefined","undefined","61","NA","0","0","0","0","0","0","0","77","77","0","15","0","no","04/13/19 10:25:37","A simple template for the mouse-tracking paradigm","yes","Experiment-TF.osexp","C:\Users\Kristen\Documents\opPreviewExperiment-master\procedure","no","mono","no","24","no","black","no","yes","1050","legacy","61","15","C:/Users/Kristen/Documents/opPreviewExperiment-master/procedure/subject-17.csv","legacy","Kafkaesque Koffka","3.2.6","add","0","a","NA","NA","a","a","17888","NA","NA","41472","17888","2","1450","legacy","large","1024","2","48000","-16","experiment","8_4_add_true.jpg","17","odd","legacy","244154","NA","101716","NA","NA","2701","NA","2718","83828","244155","246604","44191","80736","2702","mousetracking operator preview effect","0","0","0","no","true","no","1680"
"neutral","undefined","1","undefined","undefined","white","no","legacy","legacy","legacy","0","relative","undefined","undefined","62","NA","0","0","0","0","0","0","0","78","78","0","15","0","no","04/13/19 10:25:37","A simple template for the mouse-tracking paradigm","yes","Experiment-TF.osexp","C:\Users\Kristen\Documents\opPreviewExperiment-master\procedure","no","mono","no","24","no","black","no","yes","1050","legacy","62","15","C:/Users/Kristen/Documents/opPreviewExperiment-master/procedure/subject-17.csv","legacy","Kafkaesque Koffka","3.2.6","mult","0","a","NA","NA","a","a","17888","NA","NA","41472","17888","2","733","legacy","small","1024","2","48000","-16","experiment","8_2_mult_true.jpg","17","odd","legacy","246620","NA","101716","NA","NA","2701","NA","2718","83828","246620","248328","44191","80736","2702","mousetracking operator preview effect","0","0","0","no","true","no","1680"
"neutral","undefined","1","undefined","undefined","white","no","legacy","legacy","legacy","0","relative","undefined","undefined","63","NA","0","0","0","0","0","0","0","79","79","0","15","0","no","04/13/19 10:25:37","A simple template for the mouse-tracking paradigm","yes","Experiment-TF.osexp","C:\Users\Kristen\Documents\opPreviewExperiment-master\procedure","no","mono","no","24","no","black","no","yes","1050","legacy","63","15","C:/Users/Kristen/Documents/opPreviewExperiment-master/procedure/subject-17.csv","legacy","Kafkaesque Koffka","3.2.6","add","0","l","NA","NA","a","a","17888","NA","NA","41472","17888","2","767","legacy","small","1024","2","48000","-16","experiment","5_3_add_FNI.jpg","17","odd","legacy","248345","NA","101716","NA","NA","2701","NA","2718","83828","248346","250112","44191","80736","2702","mousetracking operator preview effect","0","0","0","no","false","no","1680"
"negative","undefined","1","undefined","undefined","white","no","legacy","legacy","legacy","0","relative","undefined","undefined","64","NA","0","0","0","0","0","0","0","80","80","0","15","0","no","04/13/19 10:25:37","A simple template for the mouse-tracking paradigm","yes","Experiment-TF.osexp","C:\Users\Kristen\Documents\opPreviewExperiment-master\procedure","no","mono","no","24","no","black","no","yes","1050","legacy","64","15","C:/Users/Kristen/Documents/opPreviewExperiment-master/procedure/subject-17.csv","legacy","Kafkaesque Koffka","3.2.6","mult","0","a","NA","NA","a","a","17888","NA","NA","41472","17888","2","861","legacy","small","1024","2","48000","-16","experiment","3_6_mult_true.jpg","17","odd","legacy","250143","NA","101716","NA","NA","2701","NA","2718","83828","250143","252158","44191","80736","2702","mousetracking operator preview effect","0","0","0","no","true","no","1680"
"negative","undefined","1","undefined","undefined","white","no","legacy","legacy","legacy","0","relative","undefined","undefined","65","NA","0","0","0","0","0","0","0","81","81","0","15","0","no","04/13/19 10:25:37","A simple template for the mouse-tracking paradigm","yes","Experiment-TF.osexp","C:\Users\Kristen\Documents\opPreviewExperiment-master\procedure","no","mono","no","24","no","black","no","yes","1050","legacy","65","15","C:/Users/Kristen/Documents/opPreviewExperiment-master/procedure/subject-17.csv","legacy","Kafkaesque Koffka","3.2.6","add","0","a","NA","NA","a","a","17888","NA","NA","41472","17888","2","939","legacy","large","1024","2","48000","-16","experiment","8_4_add_true.jpg","17","odd","legacy","252180","NA","101716","NA","NA","2701","NA","2718","83828","252180","254268","44191","80736","2702","mousetracking operator preview effect","0","0","0","no","true","no","1680"
"negative","undefined","1","undefined","undefined","white","no","legacy","legacy","legacy","0","relative","undefined","undefined","66","NA","0","0","0","0","0","0","0","82","82","0","15","0","no","04/13/19 10:25:37","A simple template for the mouse-tracking paradigm","yes","Experiment-TF.osexp","C:\Users\Kristen\Documents\opPreviewExperiment-master\procedure","no","mono","no","24","no","black","no","yes","1050","legacy","66","15","C:/Users/Kristen/Documents/opPreviewExperiment-master/procedure/subject-17.csv","legacy","Kafkaesque Koffka","3.2.6","mult","0","l","NA","NA","a","a","17888","NA","NA","41472","17888","2","770","legacy","large","1024","2","48000","-16","experiment","8_4_mult_FNI.jpg","17","odd","legacy","254296","NA","101716","NA","NA","2701","NA","2718","83828","254296","256217","44191","80736","2702","mousetracking operator preview effect","0","0","0","no","false","no","1680"
"neutral","undefined","1","undefined","undefined","white","no","legacy","legacy","legacy","0","relative","undefined","undefined","67","NA","0","0","0","0","0","0","0","83","83","0","15","0","no","04/13/19 10:25:37","A simple template for the mouse-tracking paradigm","yes","Experiment-TF.osexp","C:\Users\Kristen\Documents\opPreviewExperiment-master\procedure","no","mono","no","24","no","black","no","yes","1050","legacy","67","15","C:/Users/Kristen/Documents/opPreviewExperiment-master/procedure/subject-17.csv","legacy","Kafkaesque Koffka","3.2.6","mult","0","l","NA","NA","a","a","17888","NA","NA","41472","17888","2","830","legacy","large","1024","2","48000","-16","experiment","6_8_mult_FNI.jpg","17","odd","legacy","256248","NA","101716","NA","NA","2701","NA","2718","83828","256248","258059","44191","80736","2702","mousetracking operator preview effect","0","0","0","no","false","no","1680"
"neutral","undefined","1","undefined","undefined","white","no","legacy","legacy","legacy","0","relative","undefined","undefined","68","NA","0","0","0","0","0","0","0","84","84","0","15","0","no","04/13/19 10:25:37","A simple template for the mouse-tracking paradigm","yes","Experiment-TF.osexp","C:\Users\Kristen\Documents\opPreviewExperiment-master\procedure","no","mono","no","24","no","black","no","yes","1050","legacy","68","15","C:/Users/Kristen/Documents/opPreviewExperiment-master/procedure/subject-17.csv","legacy","Kafkaesque Koffka","3.2.6","mult","0","a","NA","NA","a","a","17888","NA","NA","41472","17888","2","885","legacy","small","1024","2","48000","-16","experiment","2_7_mult_true.jpg","17","odd","legacy","258073","NA","101716","NA","NA","2701","NA","2718","83828","258073","259932","44191","80736","2702","mousetracking operator preview effect","0","0","0","no","true","no","1680"
"negative","undefined","1","undefined","undefined","white","no","legacy","legacy","legacy","0","relative","undefined","undefined","69","NA","0","0","0","0","0","0","0","85","85","0","15","0","no","04/13/19 10:25:37","A simple template for the mouse-tracking paradigm","yes","Experiment-TF.osexp","C:\Users\Kristen\Documents\opPreviewExperiment-master\procedure","no","mono","no","24","no","black","no","yes","1050","legacy","69","15","C:/Users/Kristen/Documents/opPreviewExperiment-master/procedure/subject-17.csv","legacy","Kafkaesque Koffka","3.2.6","mult","0","l","NA","NA","a","a","17888","NA","NA","41472","17888","2","1029","legacy","large","1024","2","48000","-16","experiment","8_4_mult_FI.jpg","17","odd","legacy","259962","NA","101716","NA","NA","2701","NA","2718","83828","259962","262168","44191","80736","2702","mousetracking operator preview effect","0","0","0","no","false","no","1680"
"negative","undefined","1","undefined","undefined","white","no","legacy","legacy","legacy","0","relative","undefined","undefined","70","NA","0","0","0","0","0","0","0","86","86","0","15","0","no","04/13/19 10:25:37","A simple template for the mouse-tracking paradigm","yes","Experiment-TF.osexp","C:\Users\Kristen\Documents\opPreviewExperiment-master\procedure","no","mono","no","24","no","black","no","yes","1050","legacy","70","15","C:/Users/Kristen/Documents/opPreviewExperiment-master/procedure/subject-17.csv","legacy","Kafkaesque Koffka","3.2.6","add","0","l","NA","NA","a","a","17888","NA","NA","41472","17888","2","867","legacy","large","1024","2","48000","-16","experiment","8_4_add_FNI.jpg","17","odd","legacy","262188","NA","101716","NA","NA","2701","NA","2718","83828","262188","264204","44191","80736","2702","mousetracking operator preview effect","0","0","0","no","false","no","1680"
"negative","undefined","1","undefined","undefined","white","no","legacy","legacy","legacy","0","relative","undefined","undefined","71","NA","0","0","0","0","0","0","0","87","87","0","15","0","no","04/13/19 10:25:37","A simple template for the mouse-tracking paradigm","yes","Experiment-TF.osexp","C:\Users\Kristen\Documents\opPreviewExperiment-master\procedure","no","mono","no","24","no","black","no","yes","1050","legacy","71","15","C:/Users/Kristen/Documents/opPreviewExperiment-master/procedure/subject-17.csv","legacy","Kafkaesque Koffka","3.2.6","add","0","l","NA","NA","a","a","17888","NA","NA","41472","17888","2","861","legacy","large","1024","2","48000","-16","experiment","9_7_add_FNI.jpg","17","odd","legacy","264225","NA","101716","NA","NA","2701","NA","2718","83828","264226","266243","44191","80736","2702","mousetracking operator preview effect","0","0","0","no","false","no","1680"
"neutral","undefined","1","undefined","undefined","white","no","legacy","legacy","legacy","0","relative","undefined","undefined","72","NA","0","0","0","0","0","0","0","88","88","0","15","0","no","04/13/19 10:25:37","A simple template for the mouse-tracking paradigm","yes","Experiment-TF.osexp","C:\Users\Kristen\Documents\opPreviewExperiment-master\procedure","no","mono","no","24","no","black","no","yes","1050","legacy","72","15","C:/Users/Kristen/Documents/opPreviewExperiment-master/procedure/subject-17.csv","legacy","Kafkaesque Koffka","3.2.6","add","0","a","NA","NA","a","a","17888","NA","NA","41472","17888","2","696","legacy","small","1024","2","48000","-16","experiment","8_2_add_true.jpg","17","odd","legacy","266258","NA","101716","NA","NA","2701","NA","2718","83828","266258","267934","44191","80736","2702","mousetracking operator preview effect","0","0","0","no","true","no","1680"
"negative","undefined","1","undefined","undefined","white","no","legacy","legacy","legacy","0","relative","undefined","undefined","73","NA","0","0","0","0","0","0","0","89","89","0","15","0","no","04/13/19 10:25:37","A simple template for the mouse-tracking paradigm","yes","Experiment-TF.osexp","C:\Users\Kristen\Documents\opPreviewExperiment-master\procedure","no","mono","no","24","no","black","no","yes","1050","legacy","73","15","C:/Users/Kristen/Documents/opPreviewExperiment-master/procedure/subject-17.csv","legacy","Kafkaesque Koffka","3.2.6","add","0","l","NA","NA","a","a","17888","NA","NA","41472","17888","2","987","legacy","small","1024","2","48000","-16","experiment","3_6_add_FI.jpg","17","odd","legacy","267948","NA","101716","NA","NA","2701","NA","2718","83828","267948","270108","44191","80736","2702","mousetracking operator preview effect","0","0","0","no","false","no","1680"
"neutral","undefined","1","undefined","undefined","white","no","legacy","legacy","legacy","0","relative","undefined","undefined","74","NA","0","0","0","0","0","0","0","90","90","0","15","0","no","04/13/19 10:25:37","A simple template for the mouse-tracking paradigm","yes","Experiment-TF.osexp","C:\Users\Kristen\Documents\opPreviewExperiment-master\procedure","no","mono","no","24","no","black","no","yes","1050","legacy","74","15","C:/Users/Kristen/Documents/opPreviewExperiment-master/procedure/subject-17.csv","legacy","Kafkaesque Koffka","3.2.6","add","0","a","NA","NA","a","a","17888","NA","NA","41472","17888","2","1318","legacy","large","1024","2","48000","-16","experiment","4_9_add_true.jpg","17","odd","legacy","270128","NA","101716","NA","NA","2701","NA","2718","83828","270128","272428","44191","80736","2702","mousetracking operator preview effect","0","0","0","no","true","no","1680"
"negative","undefined","1","undefined","undefined","white","no","legacy","legacy","legacy","0","relative","undefined","undefined","75","NA","0","0","0","0","0","0","0","91","91","0","15","0","no","04/13/19 10:25:37","A simple template for the mouse-tracking paradigm","yes","Experiment-TF.osexp","C:\Users\Kristen\Documents\opPreviewExperiment-master\procedure","no","mono","no","24","no","black","no","yes","1050","legacy","75","15","C:/Users/Kristen/Documents/opPreviewExperiment-master/procedure/subject-17.csv","legacy","Kafkaesque Koffka","3.2.6","mult","0","l","NA","NA","a","a","17888","NA","NA","41472","17888","2","905","legacy","small","1024","2","48000","-16","experiment","3_6_mult_FNI.jpg","17","odd","legacy","272452","NA","101716","NA","NA","2701","NA","2718","83828","272452","274510","44191","80736","2702","mousetracking operator preview effect","0","0","0","no","false","no","1680"
"negative","undefined","1","undefined","undefined","white","no","legacy","legacy","legacy","0","relative","undefined","undefined","76","NA","0","0","0","0","0","0","0","92","92","0","15","0","no","04/13/19 10:25:37","A simple template for the mouse-tracking paradigm","yes","Experiment-TF.osexp","C:\Users\Kristen\Documents\opPreviewExperiment-master\procedure","no","mono","no","24","no","black","no","yes","1050","legacy","76","15","C:/Users/Kristen/Documents/opPreviewExperiment-master/procedure/subject-17.csv","legacy","Kafkaesque Koffka","3.2.6","add","0","a","NA","NA","a","a","17888","NA","NA","41472","17888","2","1813","legacy","large","1024","2","48000","-16","experiment","6_8_add_true.jpg","17","odd","legacy","274524","NA","101716","NA","NA","2701","NA","2718","83828","274524","277485","44191","80736","2702","mousetracking operator preview effect","0","0","0","no","true","no","1680"
"negative","undefined","1","undefined","undefined","white","no","legacy","legacy","legacy","0","relative","undefined","undefined","77","NA","0","0","0","0","0","0","0","93","93","0","15","0","no","04/13/19 10:25:37","A simple template for the mouse-tracking paradigm","yes","Experiment-TF.osexp","C:\Users\Kristen\Documents\opPreviewExperiment-master\procedure","no","mono","no","24","no","black","no","yes","1050","legacy","77","15","C:/Users/Kristen/Documents/opPreviewExperiment-master/procedure/subject-17.csv","legacy","Kafkaesque Koffka","3.2.6","mult","0","l","NA","NA","a","a","17888","NA","NA","41472","17888","2","796","legacy","small","1024","2","48000","-16","experiment","8_2_mult_FNI.jpg","17","odd","legacy","277505","NA","101716","NA","NA","2701","NA","2718","83828","277505","279454","44191","80736","2702","mousetracking operator preview effect","0","0","0","no","false","no","1680"
"neutral","undefined","1","undefined","undefined","white","no","legacy","legacy","legacy","0","relative","undefined","undefined","78","NA","0","0","0","0","0","0","0","94","94","0","15","0","no","04/13/19 10:25:37","A simple template for the mouse-tracking paradigm","yes","Experiment-TF.osexp","C:\Users\Kristen\Documents\opPreviewExperiment-master\procedure","no","mono","no","24","no","black","no","yes","1050","legacy","78","15","C:/Users/Kristen/Documents/opPreviewExperiment-master/procedure/subject-17.csv","legacy","Kafkaesque Koffka","3.2.6","mult","0","a","NA","NA","a","a","17888","NA","NA","41472","17888","2","767","legacy","small","1024","2","48000","-16","experiment","3_6_mult_true.jpg","17","odd","legacy","279484","NA","101716","NA","NA","2701","NA","2718","83828","279484","281233","44191","80736","2702","mousetracking operator preview effect","0","0","0","no","true","no","1680"
"negative","undefined","1","undefined","undefined","white","no","legacy","legacy","legacy","0","relative","undefined","undefined","79","NA","0","0","0","0","0","0","0","95","95","0","15","0","no","04/13/19 10:25:37","A simple template for the mouse-tracking paradigm","yes","Experiment-TF.osexp","C:\Users\Kristen\Documents\opPreviewExperiment-master\procedure","no","mono","no","24","no","black","no","yes","1050","legacy","79","15","C:/Users/Kristen/Documents/opPreviewExperiment-master/procedure/subject-17.csv","legacy","Kafkaesque Koffka","3.2.6","add","0","l","NA","NA","a","a","17888","NA","NA","41472","17888","2","919","legacy","large","1024","2","48000","-16","experiment","9_7_add_FI.jpg","17","odd","legacy","281254","NA","101716","NA","NA","2701","NA","2718","83828","281254","283341","44191","80736","2702","mousetracking operator preview effect","0","0","0","no","false","no","1680"
"neutral","undefined","1","undefined","undefined","white","no","legacy","legacy","legacy","0","relative","undefined","undefined","80","NA","0","0","0","0","0","0","0","96","96","0","15","0","no","04/13/19 10:25:37","A simple template for the mouse-tracking paradigm","yes","Experiment-TF.osexp","C:\Users\Kristen\Documents\opPreviewExperiment-master\procedure","no","mono","no","24","no","black","no","yes","1050","legacy","80","15","C:/Users/Kristen/Documents/opPreviewExperiment-master/procedure/subject-17.csv","legacy","Kafkaesque Koffka","3.2.6","mult","0","a","NA","NA","a","a","17888","NA","NA","41472","17888","2","724","legacy","large","1024","2","48000","-16","experiment","8_4_mult_true.jpg","17","odd","legacy","283370","NA","101716","NA","NA","2701","NA","2718","83828","283370","285071","44191","80736","2702","mousetracking operator preview effect","0","0","0","no","true","no","1680"
"neutral","undefined","1","undefined","undefined","white","no","legacy","legacy","legacy","0","relative","undefined","undefined","81","NA","0","0","0","0","0","0","0","97","97","0","15","0","no","04/13/19 10:25:37","A simple template for the mouse-tracking paradigm","yes","Experiment-TF.osexp","C:\Users\Kristen\Documents\opPreviewExperiment-master\procedure","no","mono","no","24","no","black","no","yes","1050","legacy","81","15","C:/Users/Kristen/Documents/opPreviewExperiment-master/procedure/subject-17.csv","legacy","Kafkaesque Koffka","3.2.6","add","0","l","NA","NA","a","a","17888","NA","NA","41472","17888","2","962","legacy","large","1024","2","48000","-16","experiment","4_9_add_FNI.jpg","17","odd","legacy","285099","NA","101716","NA","NA","2701","NA","2718","83828","285099","287031","44191","80736","2702","mousetracking operator preview effect","0","0","0","no","false","no","1680"
"neutral","undefined","1","undefined","undefined","white","no","legacy","legacy","legacy","0","relative","undefined","undefined","82","NA","0","0","0","0","0","0","0","98","98","0","15","0","no","04/13/19 10:25:37","A simple template for the mouse-tracking paradigm","yes","Experiment-TF.osexp","C:\Users\Kristen\Documents\opPreviewExperiment-master\procedure","no","mono","no","24","no","black","no","yes","1050","legacy","82","15","C:/Users/Kristen/Documents/opPreviewExperiment-master/procedure/subject-17.csv","legacy","Kafkaesque Koffka","3.2.6","add","0","l","NA","NA","a","a","17888","NA","NA","41472","17888","2","798","legacy","small","1024","2","48000","-16","experiment","8_2_add_FNI.jpg","17","odd","legacy","287054","NA","101716","NA","NA","2701","NA","2718","83828","287054","288822","44191","80736","2702","mousetracking operator preview effect","0","0","0","no","false","no","1680"
"neutral","undefined","1","undefined","undefined","white","no","legacy","legacy","legacy","0","relative","undefined","undefined","83","NA","0","0","0","0","0","0","0","99","99","0","15","0","no","04/13/19 10:25:37","A simple template for the mouse-tracking paradigm","yes","Experiment-TF.osexp","C:\Users\Kristen\Documents\opPreviewExperiment-master\procedure","no","mono","no","24","no","black","no","yes","1050","legacy","83","15","C:/Users/Kristen/Documents/opPreviewExperiment-master/procedure/subject-17.csv","legacy","Kafkaesque Koffka","3.2.6","mult","0","a","NA","NA","a","a","17888","NA","NA","41472","17888","2","724","legacy","large","1024","2","48000","-16","experiment","6_8_mult_true.jpg","17","odd","legacy","288836","NA","101716","NA","NA","2701","NA","2718","83828","288836","290543","44191","80736","2702","mousetracking operator preview effect","0","0","0","no","true","no","1680"
"negative","undefined","1","undefined","undefined","white","no","legacy","legacy","legacy","0","relative","undefined","undefined","84","NA","0","0","0","0","0","0","0","100","100","0","15","0","no","04/13/19 10:25:37","A simple template for the mouse-tracking paradigm","yes","Experiment-TF.osexp","C:\Users\Kristen\Documents\opPreviewExperiment-master\procedure","no","mono","no","24","no","black","no","yes","1050","legacy","84","15","C:/Users/Kristen/Documents/opPreviewExperiment-master/procedure/subject-17.csv","legacy","Kafkaesque Koffka","3.2.6","mult","0","l","NA","NA","a","a","17888","NA","NA","41472","17888","2","958","legacy","small","1024","2","48000","-16","experiment","2_7_mult_FNI.jpg","17","odd","legacy","290567","NA","101716","NA","NA","2701","NA","2718","83828","290567","292701","44191","80736","2702","mousetracking operator preview effect","0","0","0","no","false","no","1680"
"neutral","undefined","1","undefined","undefined","white","no","legacy","legacy","legacy","0","relative","undefined","undefined","85","NA","0","0","0","0","0","0","0","101","101","0","15","0","no","04/13/19 10:25:37","A simple template for the mouse-tracking paradigm","yes","Experiment-TF.osexp","C:\Users\Kristen\Documents\opPreviewExperiment-master\procedure","no","mono","no","24","no","black","no","yes","1050","legacy","85","15","C:/Users/Kristen/Documents/opPreviewExperiment-master/procedure/subject-17.csv","legacy","Kafkaesque Koffka","3.2.6","mult","0","l","NA","NA","a","a","17888","NA","NA","41472","17888","2","757","legacy","small","1024","2","48000","-16","experiment","2_7_mult_FNI.jpg","17","odd","legacy","292728","NA","101716","NA","NA","2701","NA","2718","83828","292728","294461","44191","80736","2702","mousetracking operator preview effect","0","0","0","no","false","no","1680"
"neutral","undefined","1","undefined","undefined","white","no","legacy","legacy","legacy","0","relative","undefined","undefined","86","NA","0","0","0","0","0","0","0","102","102","0","15","0","no","04/13/19 10:25:37","A simple template for the mouse-tracking paradigm","yes","Experiment-TF.osexp","C:\Users\Kristen\Documents\opPreviewExperiment-master\procedure","no","mono","no","24","no","black","no","yes","1050","legacy","86","15","C:/Users/Kristen/Documents/opPreviewExperiment-master/procedure/subject-17.csv","legacy","Kafkaesque Koffka","3.2.6","add","0","l","NA","NA","a","a","17888","NA","NA","41472","17888","2","975","legacy","small","1024","2","48000","-16","experiment","3_6_add_FI.jpg","17","odd","legacy","294481","NA","101716","NA","NA","2701","NA","2718","83828","294481","296436","44191","80736","2702","mousetracking operator preview effect","0","0","0","no","false","no","1680"
"neutral","undefined","1","undefined","undefined","white","no","legacy","legacy","legacy","0","relative","undefined","undefined","87","NA","0","0","0","0","0","0","0","103","103","0","15","0","no","04/13/19 10:25:37","A simple template for the mouse-tracking paradigm","yes","Experiment-TF.osexp","C:\Users\Kristen\Documents\opPreviewExperiment-master\procedure","no","mono","no","24","no","black","no","yes","1050","legacy","87","15","C:/Users/Kristen/Documents/opPreviewExperiment-master/procedure/subject-17.csv","legacy","Kafkaesque Koffka","3.2.6","add","0","a","NA","NA","a","a","17888","NA","NA","41472","17888","2","682","legacy","small","1024","2","48000","-16","experiment","8_2_add_true.jpg","17","odd","legacy","296458","NA","101716","NA","NA","2701","NA","2718","83828","296458","298114","44191","80736","2702","mousetracking operator preview effect","0","0","0","no","true","no","1680"
"negative","undefined","1","undefined","undefined","white","no","legacy","legacy","legacy","0","relative","undefined","undefined","88","NA","0","0","0","0","0","0","0","104","104","0","15","0","no","04/13/19 10:25:37","A simple template for the mouse-tracking paradigm","yes","Experiment-TF.osexp","C:\Users\Kristen\Documents\opPreviewExperiment-master\procedure","no","mono","no","24","no","black","no","yes","1050","legacy","88","15","C:/Users/Kristen/Documents/opPreviewExperiment-master/procedure/subject-17.csv","legacy","Kafkaesque Koffka","3.2.6","mult","0","a","NA","NA","a","a","17888","NA","NA","41472","17888","2","1007","legacy","small","1024","2","48000","-16","experiment","8_2_mult_true.jpg","17","odd","legacy","298148","NA","101716","NA","NA","2701","NA","2718","83828","298148","300311","44191","80736","2702","mousetracking operator preview effect","0","0","0","no","true","no","1680"
"negative","undefined","1","undefined","undefined","white","no","legacy","legacy","legacy","0","relative","undefined","undefined","89","NA","0","0","0","0","0","0","0","105","105","0","15","0","no","04/13/19 10:25:37","A simple template for the mouse-tracking paradigm","yes","Experiment-TF.osexp","C:\Users\Kristen\Documents\opPreviewExperiment-master\procedure","no","mono","no","24","no","black","no","yes","1050","legacy","89","15","C:/Users/Kristen/Documents/opPreviewExperiment-master/procedure/subject-17.csv","legacy","Kafkaesque Koffka","3.2.6","add","0","a","NA","NA","a","a","17888","NA","NA","41472","17888","2","1537","legacy","large","1024","2","48000","-16","experiment","9_7_add_true.jpg","17","odd","legacy","300334","NA","101716","NA","NA","2701","NA","2718","83828","300334","303028","44191","80736","2702","mousetracking operator preview effect","0","0","0","no","true","no","1680"
"neutral","undefined","1","undefined","undefined","white","no","legacy","legacy","legacy","0","relative","undefined","undefined","90","NA","0","0","0","0","0","0","0","106","106","0","15","0","no","04/13/19 10:25:37","A simple template for the mouse-tracking paradigm","yes","Experiment-TF.osexp","C:\Users\Kristen\Documents\opPreviewExperiment-master\procedure","no","mono","no","24","no","black","no","yes","1050","legacy","90","15","C:/Users/Kristen/Documents/opPreviewExperiment-master/procedure/subject-17.csv","legacy","Kafkaesque Koffka","3.2.6","add","0","l","NA","NA","a","a","17888","NA","NA","41472","17888","2","1148","legacy","large","1024","2","48000","-16","experiment","9_7_add_FI.jpg","17","odd","legacy","303049","NA","101716","NA","NA","2701","NA","2718","83828","303049","305166","44191","80736","2702","mousetracking operator preview effect","0","0","0","no","false","no","1680"
"neutral","undefined","1","undefined","undefined","white","no","legacy","legacy","legacy","0","relative","undefined","undefined","91","NA","0","0","0","0","0","0","0","107","107","0","15","0","no","04/13/19 10:25:37","A simple template for the mouse-tracking paradigm","yes","Experiment-TF.osexp","C:\Users\Kristen\Documents\opPreviewExperiment-master\procedure","no","mono","no","24","no","black","no","yes","1050","legacy","91","15","C:/Users/Kristen/Documents/opPreviewExperiment-master/procedure/subject-17.csv","legacy","Kafkaesque Koffka","3.2.6","mult","0","l","NA","NA","a","a","17888","NA","NA","41472","17888","2","982","legacy","large","1024","2","48000","-16","experiment","4_9_mult_FNI.jpg","17","odd","legacy","305180","NA","101716","NA","NA","2701","NA","2718","83828","305180","307139","44191","80736","2702","mousetracking operator preview effect","0","0","0","no","false","no","1680"
"negative","undefined","1","undefined","undefined","white","no","legacy","legacy","legacy","0","relative","undefined","undefined","92","NA","0","0","0","0","0","0","0","108","108","0","15","0","no","04/13/19 10:25:37","A simple template for the mouse-tracking paradigm","yes","Experiment-TF.osexp","C:\Users\Kristen\Documents\opPreviewExperiment-master\procedure","no","mono","no","24","no","black","no","yes","1050","legacy","92","15","C:/Users/Kristen/Documents/opPreviewExperiment-master/procedure/subject-17.csv","legacy","Kafkaesque Koffka","3.2.6","add","0","l","NA","NA","a","a","17888","NA","NA","41472","17888","2","840","legacy","small","1024","2","48000","-16","experiment","5_3_add_FNI.jpg","17","odd","legacy","307153","NA","101716","NA","NA","2701","NA","2718","83828","307153","309149","44191","80736","2702","mousetracking operator preview effect","0","0","0","no","false","no","1680"
