"SOAcondition","acc","accuracy","average_response_time","avg_rt","background","bidi","canvas_backend","clock_backend","color_backend","compensation","coordinates","correct","correct_instruction1","count_block1_sequence","count_block2_sequence","count_block_1","count_block_2","count_breakScreen","count_experiment","count_finish","count_instruction1","count_instruction2","count_keyboard_script","count_logger","count_practiceBlock","count_practice_sequence","count_setup_script","custom_cursor","datetime","description","disable_garbage_collection","experiment_file","experiment_path","font_bold","font_family","font_italic","font_size","font_underline","foreground","form_clicks","fullscreen","height","keyboard_backend","live_row","live_row_practiceBlock","logfile","mouse_backend","opensesame_codename","opensesame_version","operation","repeat_cycle","response","response_breakScreen","response_finish","response_instruction1","response_instruction2","response_time","response_time_breakScreen","response_time_finish","response_time_instruction1","response_time_instruction2","round_decimals","rt","sampler_backend","size","sound_buf_size","sound_channels","sound_freq","sound_sample_size","start","stimulus","subject_nr","subject_parity","synth_backend","time_block1_sequence","time_block2_sequence","time_block_1","time_block_2","time_breakScreen","time_experiment","time_finish","time_instruction1","time_instruction2","time_keyboard_script","time_logger","time_practiceBlock","time_practice_sequence","time_setup_script","title","total_correct","total_response_time","total_responses","transparent_variables","truth","uniform_coordinates","width"
"negative","undefined","1","undefined","undefined","white","no","legacy","legacy","legacy","0","relative","undefined","undefined","NA","NA","0","0","0","0","0","0","0","0","0","0","0","0","no","03/17/19 22:36:56","A simple template for the mouse-tracking paradigm","yes","Experiment-FT.osexp","C:\Users\Kristen\Documents\opPreviewExperiment-master\procedure","no","mono","no","24","no","black","no","yes","1050","legacy","0","0","C:/Users/Kristen/Documents/opPreviewExperiment-master/procedure/subject-9.csv","legacy","Kafkaesque Koffka","3.2.6","mult","0","a","NA","NA","l","NA","12954","NA","NA","12954","NA","2","0","legacy","NA","1024","2","48000","-16","experiment","1_4_mult_F.jpg","9","odd","legacy","NA","NA","NA","NA","NA","1711","NA","1725","NA","14682","15777","14680","14682","1713","mousetracking operator preview effect","0","0","0","no","false","no","1680"
"neutral","undefined","1","undefined","undefined","white","no","legacy","legacy","legacy","0","relative","undefined","undefined","NA","NA","0","0","0","0","0","0","0","1","1","0","1","0","no","03/17/19 22:36:56","A simple template for the mouse-tracking paradigm","yes","Experiment-FT.osexp","C:\Users\Kristen\Documents\opPreviewExperiment-master\procedure","no","mono","no","24","no","black","no","yes","1050","legacy","1","1","C:/Users/Kristen/Documents/opPreviewExperiment-master/procedure/subject-9.csv","legacy","Kafkaesque Koffka","3.2.6","add","0","a","NA","NA","l","NA","12954","NA","NA","12954","NA","2","3054","legacy","NA","1024","2","48000","-16","experiment","0_3_add_F.jpg","9","odd","legacy","NA","NA","NA","NA","NA","1711","NA","1725","NA","15805","19790","14680","15805","1713","mousetracking operator preview effect","0","0","0","no","false","no","1680"
"neutral","undefined","1","undefined","undefined","white","no","legacy","legacy","legacy","0","relative","undefined","undefined","NA","NA","0","0","0","0","0","0","0","2","2","0","2","0","no","03/17/19 22:36:56","A simple template for the mouse-tracking paradigm","yes","Experiment-FT.osexp","C:\Users\Kristen\Documents\opPreviewExperiment-master\procedure","no","mono","no","24","no","black","no","yes","1050","legacy","2","2","C:/Users/Kristen/Documents/opPreviewExperiment-master/procedure/subject-9.csv","legacy","Kafkaesque Koffka","3.2.6","add","0","a","NA","NA","l","NA","12954","NA","NA","12954","NA","2","1982","legacy","NA","1024","2","48000","-16","experiment","1_4_add_F.jpg","9","odd","legacy","NA","NA","NA","NA","NA","1711","NA","1725","NA","19810","22722","14680","19810","1713","mousetracking operator preview effect","0","0","0","no","false","no","1680"
"neutral","undefined","1","undefined","undefined","white","no","legacy","legacy","legacy","0","relative","undefined","undefined","NA","NA","0","0","0","0","0","0","0","3","3","0","3","0","no","03/17/19 22:36:56","A simple template for the mouse-tracking paradigm","yes","Experiment-FT.osexp","C:\Users\Kristen\Documents\opPreviewExperiment-master\procedure","no","mono","no","24","no","black","no","yes","1050","legacy","3","3","C:/Users/Kristen/Documents/opPreviewExperiment-master/procedure/subject-9.csv","legacy","Kafkaesque Koffka","3.2.6","mult","0","l","NA","NA","l","NA","12954","NA","NA","12954","NA","2","1894","legacy","NA","1024","2","48000","-16","experiment","1_4_mult_T.jpg","9","odd","legacy","NA","NA","NA","NA","NA","1711","NA","1725","NA","22743","25569","14680","22743","1713","mousetracking operator preview effect","0","0","0","no","true","no","1680"
"negative","undefined","1","undefined","undefined","white","no","legacy","legacy","legacy","0","relative","undefined","undefined","NA","NA","0","0","0","0","0","0","0","4","4","0","4","0","no","03/17/19 22:36:56","A simple template for the mouse-tracking paradigm","yes","Experiment-FT.osexp","C:\Users\Kristen\Documents\opPreviewExperiment-master\procedure","no","mono","no","24","no","black","no","yes","1050","legacy","4","4","C:/Users/Kristen/Documents/opPreviewExperiment-master/procedure/subject-9.csv","legacy","Kafkaesque Koffka","3.2.6","mult","0","a","NA","NA","l","NA","12954","NA","NA","12954","NA","2","1337","legacy","NA","1024","2","48000","-16","experiment","0_3_mult_F.jpg","9","odd","legacy","NA","NA","NA","NA","NA","1711","NA","1725","NA","25589","28017","14680","25589","1713","mousetracking operator preview effect","0","0","0","no","false","no","1680"
"negative","undefined","1","undefined","undefined","white","no","legacy","legacy","legacy","0","relative","undefined","undefined","NA","NA","0","0","0","0","0","0","0","5","5","0","5","0","no","03/17/19 22:36:56","A simple template for the mouse-tracking paradigm","yes","Experiment-FT.osexp","C:\Users\Kristen\Documents\opPreviewExperiment-master\procedure","no","mono","no","24","no","black","no","yes","1050","legacy","5","5","C:/Users/Kristen/Documents/opPreviewExperiment-master/procedure/subject-9.csv","legacy","Kafkaesque Koffka","3.2.6","mult","0","l","NA","NA","l","NA","12954","NA","NA","12954","NA","2","2166","legacy","NA","1024","2","48000","-16","experiment","0_3_mult_T.jpg","9","odd","legacy","NA","NA","NA","NA","NA","1711","NA","1725","NA","28037","31294","14680","28037","1713","mousetracking operator preview effect","0","0","0","no","true","no","1680"
"neutral","undefined","1","undefined","undefined","white","no","legacy","legacy","legacy","0","relative","undefined","undefined","NA","NA","0","0","0","0","0","0","0","6","6","0","6","0","no","03/17/19 22:36:56","A simple template for the mouse-tracking paradigm","yes","Experiment-FT.osexp","C:\Users\Kristen\Documents\opPreviewExperiment-master\procedure","no","mono","no","24","no","black","no","yes","1050","legacy","6","6","C:/Users/Kristen/Documents/opPreviewExperiment-master/procedure/subject-9.csv","legacy","Kafkaesque Koffka","3.2.6","add","0","l","NA","NA","l","NA","12954","NA","NA","12954","NA","2","1","legacy","NA","1024","2","48000","-16","experiment","0_3_add_T.jpg","9","odd","legacy","NA","NA","NA","NA","NA","1711","NA","1725","NA","31314","32246","14680","31314","1713","mousetracking operator preview effect","0","0","0","no","true","no","1680"
"negative","undefined","0","undefined","undefined","white","no","legacy","legacy","legacy","0","relative","undefined","undefined","NA","NA","0","0","0","0","0","0","0","7","7","0","7","0","no","03/17/19 22:36:56","A simple template for the mouse-tracking paradigm","yes","Experiment-FT.osexp","C:\Users\Kristen\Documents\opPreviewExperiment-master\procedure","no","mono","no","24","no","black","no","yes","1050","legacy","7","7","C:/Users/Kristen/Documents/opPreviewExperiment-master/procedure/subject-9.csv","legacy","Kafkaesque Koffka","3.2.6","add","0","a","NA","NA","l","NA","12954","NA","NA","12954","NA","2","3164","legacy","NA","1024","2","48000","-16","experiment","0_3_add_T.jpg","9","odd","legacy","NA","NA","NA","NA","NA","1711","NA","1725","NA","32268","37571","14680","32268","1713","mousetracking operator preview effect","0","0","0","no","true","no","1680"
"negative","undefined","1","undefined","undefined","white","no","legacy","legacy","legacy","0","relative","undefined","undefined","NA","NA","0","0","0","0","0","0","0","8","8","0","8","0","no","03/17/19 22:36:56","A simple template for the mouse-tracking paradigm","yes","Experiment-FT.osexp","C:\Users\Kristen\Documents\opPreviewExperiment-master\procedure","no","mono","no","24","no","black","no","yes","1050","legacy","8","8","C:/Users/Kristen/Documents/opPreviewExperiment-master/procedure/subject-9.csv","legacy","Kafkaesque Koffka","3.2.6","mult","0","l","NA","NA","l","NA","12954","NA","NA","12954","NA","2","39796","legacy","NA","1024","2","48000","-16","experiment","1_4_mult_T.jpg","9","odd","legacy","NA","NA","NA","NA","NA","1711","NA","1725","NA","37612","78572","14680","37611","1713","mousetracking operator preview effect","0","0","0","no","true","no","1680"
"neutral","undefined","1","undefined","undefined","white","no","legacy","legacy","legacy","0","relative","undefined","undefined","NA","NA","0","0","0","0","0","0","0","9","9","0","9","0","no","03/17/19 22:36:56","A simple template for the mouse-tracking paradigm","yes","Experiment-FT.osexp","C:\Users\Kristen\Documents\opPreviewExperiment-master\procedure","no","mono","no","24","no","black","no","yes","1050","legacy","9","9","C:/Users/Kristen/Documents/opPreviewExperiment-master/procedure/subject-9.csv","legacy","Kafkaesque Koffka","3.2.6","add","0","l","NA","NA","l","NA","12954","NA","NA","12954","NA","2","0","legacy","NA","1024","2","48000","-16","experiment","1_4_add_T.jpg","9","odd","legacy","NA","NA","NA","NA","NA","1711","NA","1725","NA","78592","79570","14680","78592","1713","mousetracking operator preview effect","0","0","0","no","true","no","1680"
"neutral","undefined","1","undefined","undefined","white","no","legacy","legacy","legacy","0","relative","undefined","undefined","NA","NA","0","0","0","0","0","0","0","10","10","0","10","0","no","03/17/19 22:36:56","A simple template for the mouse-tracking paradigm","yes","Experiment-FT.osexp","C:\Users\Kristen\Documents\opPreviewExperiment-master\procedure","no","mono","no","24","no","black","no","yes","1050","legacy","10","10","C:/Users/Kristen/Documents/opPreviewExperiment-master/procedure/subject-9.csv","legacy","Kafkaesque Koffka","3.2.6","mult","0","a","NA","NA","l","NA","12954","NA","NA","12954","NA","2","2447","legacy","NA","1024","2","48000","-16","experiment","1_4_mult_F.jpg","9","odd","legacy","NA","NA","NA","NA","NA","1711","NA","1725","NA","79610","83051","14680","79610","1713","mousetracking operator preview effect","0","0","0","no","false","no","1680"
"neutral","undefined","1","undefined","undefined","white","no","legacy","legacy","legacy","0","relative","undefined","undefined","NA","NA","0","0","0","0","0","0","0","11","11","0","11","0","no","03/17/19 22:36:56","A simple template for the mouse-tracking paradigm","yes","Experiment-FT.osexp","C:\Users\Kristen\Documents\opPreviewExperiment-master\procedure","no","mono","no","24","no","black","no","yes","1050","legacy","11","11","C:/Users/Kristen/Documents/opPreviewExperiment-master/procedure/subject-9.csv","legacy","Kafkaesque Koffka","3.2.6","mult","0","l","NA","NA","l","NA","12954","NA","NA","12954","NA","2","1579","legacy","NA","1024","2","48000","-16","experiment","0_3_mult_T.jpg","9","odd","legacy","NA","NA","NA","NA","NA","1711","NA","1725","NA","83091","85655","14680","83091","1713","mousetracking operator preview effect","0","0","0","no","true","no","1680"
"neutral","undefined","0","undefined","undefined","white","no","legacy","legacy","legacy","0","relative","undefined","undefined","NA","NA","0","0","0","0","0","0","0","12","12","0","12","0","no","03/17/19 22:36:56","A simple template for the mouse-tracking paradigm","yes","Experiment-FT.osexp","C:\Users\Kristen\Documents\opPreviewExperiment-master\procedure","no","mono","no","24","no","black","no","yes","1050","legacy","12","12","C:/Users/Kristen/Documents/opPreviewExperiment-master/procedure/subject-9.csv","legacy","Kafkaesque Koffka","3.2.6","mult","0","l","NA","NA","l","NA","12954","NA","NA","12954","NA","2","0","legacy","NA","1024","2","48000","-16","experiment","0_3_mult_F.jpg","9","odd","legacy","NA","NA","NA","NA","NA","1711","NA","1725","NA","85685","87719","14680","85685","1713","mousetracking operator preview effect","0","0","0","no","false","no","1680"
"negative","undefined","0","undefined","undefined","white","no","legacy","legacy","legacy","0","relative","undefined","undefined","NA","NA","0","0","0","0","0","0","0","13","13","0","13","0","no","03/17/19 22:36:56","A simple template for the mouse-tracking paradigm","yes","Experiment-FT.osexp","C:\Users\Kristen\Documents\opPreviewExperiment-master\procedure","no","mono","no","24","no","black","no","yes","1050","legacy","13","13","C:/Users/Kristen/Documents/opPreviewExperiment-master/procedure/subject-9.csv","legacy","Kafkaesque Koffka","3.2.6","add","0","l","NA","NA","l","NA","12954","NA","NA","12954","NA","2","0","legacy","NA","1024","2","48000","-16","experiment","0_3_add_F.jpg","9","odd","legacy","NA","NA","NA","NA","NA","1711","NA","1725","NA","87757","89976","14680","87757","1713","mousetracking operator preview effect","0","0","0","no","false","no","1680"
"negative","undefined","1","undefined","undefined","white","no","legacy","legacy","legacy","0","relative","undefined","undefined","NA","NA","0","0","0","0","0","0","0","14","14","0","14","0","no","03/17/19 22:36:56","A simple template for the mouse-tracking paradigm","yes","Experiment-FT.osexp","C:\Users\Kristen\Documents\opPreviewExperiment-master\procedure","no","mono","no","24","no","black","no","yes","1050","legacy","14","14","C:/Users/Kristen/Documents/opPreviewExperiment-master/procedure/subject-9.csv","legacy","Kafkaesque Koffka","3.2.6","add","0","a","NA","NA","l","NA","12954","NA","NA","12954","NA","2","2991","legacy","NA","1024","2","48000","-16","experiment","1_4_add_F.jpg","9","odd","legacy","NA","NA","NA","NA","NA","1711","NA","1725","NA","90020","94189","14680","90020","1713","mousetracking operator preview effect","0","0","0","no","false","no","1680"
"negative","undefined","1","undefined","undefined","white","no","legacy","legacy","legacy","0","relative","undefined","undefined","NA","NA","0","0","0","0","0","0","0","15","15","0","15","0","no","03/17/19 22:36:56","A simple template for the mouse-tracking paradigm","yes","Experiment-FT.osexp","C:\Users\Kristen\Documents\opPreviewExperiment-master\procedure","no","mono","no","24","no","black","no","yes","1050","legacy","15","15","C:/Users/Kristen/Documents/opPreviewExperiment-master/procedure/subject-9.csv","legacy","Kafkaesque Koffka","3.2.6","add","0","l","NA","NA","l","NA","12954","NA","NA","12954","NA","2","1039","legacy","NA","1024","2","48000","-16","experiment","1_4_add_T.jpg","9","odd","legacy","NA","NA","NA","NA","NA","1711","NA","1725","NA","94221","96416","14680","94221","1713","mousetracking operator preview effect","0","0","0","no","true","no","1680"
"negative","undefined","1","undefined","undefined","white","no","legacy","legacy","legacy","0","relative","undefined","undefined","0","NA","0","0","0","0","0","0","0","16","16","0","15","0","no","03/17/19 22:36:56","A simple template for the mouse-tracking paradigm","yes","Experiment-FT.osexp","C:\Users\Kristen\Documents\opPreviewExperiment-master\procedure","no","mono","no","24","no","black","no","yes","1050","legacy","0","15","C:/Users/Kristen/Documents/opPreviewExperiment-master/procedure/subject-9.csv","legacy","Kafkaesque Koffka","3.2.6","mult","0","a","NA","NA","l","l","68856","NA","NA","12954","68856","2","3025","legacy","large","1024","2","48000","-16","experiment","9_7_mult_FI.jpg","9","odd","legacy","165308","NA","165301","NA","NA","1711","NA","1725","96444","165308","169459","14680","94221","1713","mousetracking operator preview effect","0","0","0","no","false","no","1680"
"neutral","undefined","1","undefined","undefined","white","no","legacy","legacy","legacy","0","relative","undefined","undefined","1","NA","0","0","0","0","0","0","0","17","17","0","15","0","no","03/17/19 22:36:56","A simple template for the mouse-tracking paradigm","yes","Experiment-FT.osexp","C:\Users\Kristen\Documents\opPreviewExperiment-master\procedure","no","mono","no","24","no","black","no","yes","1050","legacy","1","15","C:/Users/Kristen/Documents/opPreviewExperiment-master/procedure/subject-9.csv","legacy","Kafkaesque Koffka","3.2.6","mult","0","l","NA","NA","l","l","68856","NA","NA","12954","68856","2","3509","legacy","large","1024","2","48000","-16","experiment","4_9_mult_true.jpg","9","odd","legacy","169489","NA","165301","NA","NA","1711","NA","1725","96444","169489","173976","14680","94221","1713","mousetracking operator preview effect","0","0","0","no","true","no","1680"
"neutral","undefined","1","undefined","undefined","white","no","legacy","legacy","legacy","0","relative","undefined","undefined","2","NA","0","0","0","0","0","0","0","18","18","0","15","0","no","03/17/19 22:36:56","A simple template for the mouse-tracking paradigm","yes","Experiment-FT.osexp","C:\Users\Kristen\Documents\opPreviewExperiment-master\procedure","no","mono","no","24","no","black","no","yes","1050","legacy","2","15","C:/Users/Kristen/Documents/opPreviewExperiment-master/procedure/subject-9.csv","legacy","Kafkaesque Koffka","3.2.6","mult","0","a","NA","NA","l","l","68856","NA","NA","12954","68856","2","2053","legacy","small","1024","2","48000","-16","experiment","2_7_mult_FI.jpg","9","odd","legacy","174007","NA","165301","NA","NA","1711","NA","1725","96444","174007","177043","14680","94221","1713","mousetracking operator preview effect","0","0","0","no","false","no","1680"
"neutral","undefined","1","undefined","undefined","white","no","legacy","legacy","legacy","0","relative","undefined","undefined","3","NA","0","0","0","0","0","0","0","19","19","0","15","0","no","03/17/19 22:36:56","A simple template for the mouse-tracking paradigm","yes","Experiment-FT.osexp","C:\Users\Kristen\Documents\opPreviewExperiment-master\procedure","no","mono","no","24","no","black","no","yes","1050","legacy","3","15","C:/Users/Kristen/Documents/opPreviewExperiment-master/procedure/subject-9.csv","legacy","Kafkaesque Koffka","3.2.6","mult","0","l","NA","NA","l","l","68856","NA","NA","12954","68856","2","1796","legacy","small","1024","2","48000","-16","experiment","5_3_mult_true.jpg","9","odd","legacy","177066","NA","165301","NA","NA","1711","NA","1725","96444","177066","179840","14680","94221","1713","mousetracking operator preview effect","0","0","0","no","true","no","1680"
"neutral","undefined","1","undefined","undefined","white","no","legacy","legacy","legacy","0","relative","undefined","undefined","4","NA","0","0","0","0","0","0","0","20","20","0","15","0","no","03/17/19 22:36:56","A simple template for the mouse-tracking paradigm","yes","Experiment-FT.osexp","C:\Users\Kristen\Documents\opPreviewExperiment-master\procedure","no","mono","no","24","no","black","no","yes","1050","legacy","4","15","C:/Users/Kristen/Documents/opPreviewExperiment-master/procedure/subject-9.csv","legacy","Kafkaesque Koffka","3.2.6","mult","0","l","NA","NA","l","l","68856","NA","NA","12954","68856","2","3617","legacy","large","1024","2","48000","-16","experiment","8_4_mult_true.jpg","9","odd","legacy","179870","NA","165301","NA","NA","1711","NA","1725","96444","179870","184471","14680","94221","1713","mousetracking operator preview effect","0","0","0","no","true","no","1680"
"negative","undefined","1","undefined","undefined","white","no","legacy","legacy","legacy","0","relative","undefined","undefined","5","NA","0","0","0","0","0","0","0","21","21","0","15","0","no","03/17/19 22:36:56","A simple template for the mouse-tracking paradigm","yes","Experiment-FT.osexp","C:\Users\Kristen\Documents\opPreviewExperiment-master\procedure","no","mono","no","24","no","black","no","yes","1050","legacy","5","15","C:/Users/Kristen/Documents/opPreviewExperiment-master/procedure/subject-9.csv","legacy","Kafkaesque Koffka","3.2.6","mult","0","a","NA","NA","l","l","68856","NA","NA","12954","68856","2","1827","legacy","large","1024","2","48000","-16","experiment","6_8_mult_FI.jpg","9","odd","legacy","184496","NA","165301","NA","NA","1711","NA","1725","96444","184497","187504","14680","94221","1713","mousetracking operator preview effect","0","0","0","no","false","no","1680"
"neutral","undefined","0","undefined","undefined","white","no","legacy","legacy","legacy","0","relative","undefined","undefined","6","NA","0","0","0","0","0","0","0","22","22","0","15","0","no","03/17/19 22:36:56","A simple template for the mouse-tracking paradigm","yes","Experiment-FT.osexp","C:\Users\Kristen\Documents\opPreviewExperiment-master\procedure","no","mono","no","24","no","black","no","yes","1050","legacy","6","15","C:/Users/Kristen/Documents/opPreviewExperiment-master/procedure/subject-9.csv","legacy","Kafkaesque Koffka","3.2.6","mult","0","l","NA","NA","l","l","68856","NA","NA","12954","68856","2","2249","legacy","large","1024","2","48000","-16","experiment","8_4_mult_FI.jpg","9","odd","legacy","187537","NA","165301","NA","NA","1711","NA","1725","96444","187537","191799","14680","94221","1713","mousetracking operator preview effect","0","0","0","no","false","no","1680"
"neutral","undefined","1","undefined","undefined","white","no","legacy","legacy","legacy","0","relative","undefined","undefined","7","NA","0","0","0","0","0","0","0","23","23","0","15","0","no","03/17/19 22:36:56","A simple template for the mouse-tracking paradigm","yes","Experiment-FT.osexp","C:\Users\Kristen\Documents\opPreviewExperiment-master\procedure","no","mono","no","24","no","black","no","yes","1050","legacy","7","15","C:/Users/Kristen/Documents/opPreviewExperiment-master/procedure/subject-9.csv","legacy","Kafkaesque Koffka","3.2.6","mult","0","l","NA","NA","l","l","68856","NA","NA","12954","68856","2","1551","legacy","small","1024","2","48000","-16","experiment","5_3_mult_true.jpg","9","odd","legacy","191838","NA","165301","NA","NA","1711","NA","1725","96444","191840","194382","14680","94221","1713","mousetracking operator preview effect","0","0","0","no","true","no","1680"
"neutral","undefined","1","undefined","undefined","white","no","legacy","legacy","legacy","0","relative","undefined","undefined","8","NA","0","0","0","0","0","0","0","24","24","0","15","0","no","03/17/19 22:36:56","A simple template for the mouse-tracking paradigm","yes","Experiment-FT.osexp","C:\Users\Kristen\Documents\opPreviewExperiment-master\procedure","no","mono","no","24","no","black","no","yes","1050","legacy","8","15","C:/Users/Kristen/Documents/opPreviewExperiment-master/procedure/subject-9.csv","legacy","Kafkaesque Koffka","3.2.6","add","0","l","NA","NA","l","l","68856","NA","NA","12954","68856","2","2798","legacy","small","1024","2","48000","-16","experiment","8_2_add_true.jpg","9","odd","legacy","194415","NA","165301","NA","NA","1711","NA","1725","96444","194415","198201","14680","94221","1713","mousetracking operator preview effect","0","0","0","no","true","no","1680"
"negative","undefined","1","undefined","undefined","white","no","legacy","legacy","legacy","0","relative","undefined","undefined","9","NA","0","0","0","0","0","0","0","25","25","0","15","0","no","03/17/19 22:36:56","A simple template for the mouse-tracking paradigm","yes","Experiment-FT.osexp","C:\Users\Kristen\Documents\opPreviewExperiment-master\procedure","no","mono","no","24","no","black","no","yes","1050","legacy","9","15","C:/Users/Kristen/Documents/opPreviewExperiment-master/procedure/subject-9.csv","legacy","Kafkaesque Koffka","3.2.6","mult","0","a","NA","NA","l","l","68856","NA","NA","12954","68856","2","2406","legacy","large","1024","2","48000","-16","experiment","8_4_mult_FNI.jpg","9","odd","legacy","198230","NA","165301","NA","NA","1711","NA","1725","96444","198230","201790","14680","94221","1713","mousetracking operator preview effect","0","0","0","no","false","no","1680"
"neutral","undefined","1","undefined","undefined","white","no","legacy","legacy","legacy","0","relative","undefined","undefined","10","NA","0","0","0","0","0","0","0","26","26","0","15","0","no","03/17/19 22:36:56","A simple template for the mouse-tracking paradigm","yes","Experiment-FT.osexp","C:\Users\Kristen\Documents\opPreviewExperiment-master\procedure","no","mono","no","24","no","black","no","yes","1050","legacy","10","15","C:/Users/Kristen/Documents/opPreviewExperiment-master/procedure/subject-9.csv","legacy","Kafkaesque Koffka","3.2.6","add","0","l","NA","NA","l","l","68856","NA","NA","12954","68856","2","2550","legacy","large","1024","2","48000","-16","experiment","9_7_add_true.jpg","9","odd","legacy","201820","NA","165301","NA","NA","1711","NA","1725","96444","201820","205353","14680","94221","1713","mousetracking operator preview effect","0","0","0","no","true","no","1680"
"neutral","undefined","0","undefined","undefined","white","no","legacy","legacy","legacy","0","relative","undefined","undefined","11","NA","0","0","0","0","0","0","0","27","27","0","15","0","no","03/17/19 22:36:56","A simple template for the mouse-tracking paradigm","yes","Experiment-FT.osexp","C:\Users\Kristen\Documents\opPreviewExperiment-master\procedure","no","mono","no","24","no","black","no","yes","1050","legacy","11","15","C:/Users/Kristen/Documents/opPreviewExperiment-master/procedure/subject-9.csv","legacy","Kafkaesque Koffka","3.2.6","mult","0","a","NA","NA","l","l","68856","NA","NA","12954","68856","2","3196","legacy","large","1024","2","48000","-16","experiment","9_7_mult_true.jpg","9","odd","legacy","205374","NA","165301","NA","NA","1711","NA","1725","96444","205374","210568","14680","94221","1713","mousetracking operator preview effect","0","0","0","no","true","no","1680"
"negative","undefined","1","undefined","undefined","white","no","legacy","legacy","legacy","0","relative","undefined","undefined","12","NA","0","0","0","0","0","0","0","28","28","0","15","0","no","03/17/19 22:36:56","A simple template for the mouse-tracking paradigm","yes","Experiment-FT.osexp","C:\Users\Kristen\Documents\opPreviewExperiment-master\procedure","no","mono","no","24","no","black","no","yes","1050","legacy","12","15","C:/Users/Kristen/Documents/opPreviewExperiment-master/procedure/subject-9.csv","legacy","Kafkaesque Koffka","3.2.6","mult","0","l","NA","NA","l","l","68856","NA","NA","12954","68856","2","2003","legacy","small","1024","2","48000","-16","experiment","8_2_mult_true.jpg","9","odd","legacy","210608","NA","165301","NA","NA","1711","NA","1725","96444","210609","213773","14680","94221","1713","mousetracking operator preview effect","0","0","0","no","true","no","1680"
"negative","undefined","1","undefined","undefined","white","no","legacy","legacy","legacy","0","relative","undefined","undefined","13","NA","0","0","0","0","0","0","0","29","29","0","15","0","no","03/17/19 22:36:56","A simple template for the mouse-tracking paradigm","yes","Experiment-FT.osexp","C:\Users\Kristen\Documents\opPreviewExperiment-master\procedure","no","mono","no","24","no","black","no","yes","1050","legacy","13","15","C:/Users/Kristen/Documents/opPreviewExperiment-master/procedure/subject-9.csv","legacy","Kafkaesque Koffka","3.2.6","add","0","a","NA","NA","l","l","68856","NA","NA","12954","68856","2","2612","legacy","large","1024","2","48000","-16","experiment","8_4_add_FI.jpg","9","odd","legacy","213799","NA","165301","NA","NA","1711","NA","1725","96444","213799","217576","14680","94221","1713","mousetracking operator preview effect","0","0","0","no","false","no","1680"
"neutral","undefined","1","undefined","undefined","white","no","legacy","legacy","legacy","0","relative","undefined","undefined","14","NA","0","0","0","0","0","0","0","30","30","0","15","0","no","03/17/19 22:36:56","A simple template for the mouse-tracking paradigm","yes","Experiment-FT.osexp","C:\Users\Kristen\Documents\opPreviewExperiment-master\procedure","no","mono","no","24","no","black","no","yes","1050","legacy","14","15","C:/Users/Kristen/Documents/opPreviewExperiment-master/procedure/subject-9.csv","legacy","Kafkaesque Koffka","3.2.6","mult","0","l","NA","NA","l","l","68856","NA","NA","12954","68856","2","2236","legacy","small","1024","2","48000","-16","experiment","3_6_mult_true.jpg","9","odd","legacy","217606","NA","165301","NA","NA","1711","NA","1725","96444","217606","220825","14680","94221","1713","mousetracking operator preview effect","0","0","0","no","true","no","1680"
"neutral","undefined","1","undefined","undefined","white","no","legacy","legacy","legacy","0","relative","undefined","undefined","15","NA","0","0","0","0","0","0","0","31","31","0","15","0","no","03/17/19 22:36:56","A simple template for the mouse-tracking paradigm","yes","Experiment-FT.osexp","C:\Users\Kristen\Documents\opPreviewExperiment-master\procedure","no","mono","no","24","no","black","no","yes","1050","legacy","15","15","C:/Users/Kristen/Documents/opPreviewExperiment-master/procedure/subject-9.csv","legacy","Kafkaesque Koffka","3.2.6","mult","0","l","NA","NA","l","l","68856","NA","NA","12954","68856","2","2619","legacy","small","1024","2","48000","-16","experiment","8_2_mult_true.jpg","9","odd","legacy","220857","NA","165301","NA","NA","1711","NA","1725","96444","220857","224460","14680","94221","1713","mousetracking operator preview effect","0","0","0","no","true","no","1680"
"neutral","undefined","1","undefined","undefined","white","no","legacy","legacy","legacy","0","relative","undefined","undefined","16","NA","0","0","0","0","0","0","0","32","32","0","15","0","no","03/17/19 22:36:56","A simple template for the mouse-tracking paradigm","yes","Experiment-FT.osexp","C:\Users\Kristen\Documents\opPreviewExperiment-master\procedure","no","mono","no","24","no","black","no","yes","1050","legacy","16","15","C:/Users/Kristen/Documents/opPreviewExperiment-master/procedure/subject-9.csv","legacy","Kafkaesque Koffka","3.2.6","add","0","l","NA","NA","l","l","68856","NA","NA","12954","68856","2","2316","legacy","small","1024","2","48000","-16","experiment","3_6_add_true.jpg","9","odd","legacy","224492","NA","165301","NA","NA","1711","NA","1725","96444","224492","227800","14680","94221","1713","mousetracking operator preview effect","0","0","0","no","true","no","1680"
"neutral","undefined","1","undefined","undefined","white","no","legacy","legacy","legacy","0","relative","undefined","undefined","17","NA","0","0","0","0","0","0","0","33","33","0","15","0","no","03/17/19 22:36:56","A simple template for the mouse-tracking paradigm","yes","Experiment-FT.osexp","C:\Users\Kristen\Documents\opPreviewExperiment-master\procedure","no","mono","no","24","no","black","no","yes","1050","legacy","17","15","C:/Users/Kristen/Documents/opPreviewExperiment-master/procedure/subject-9.csv","legacy","Kafkaesque Koffka","3.2.6","mult","0","a","NA","NA","l","l","68856","NA","NA","12954","68856","2","3542","legacy","small","1024","2","48000","-16","experiment","3_6_mult_FNI.jpg","9","odd","legacy","227826","NA","165301","NA","NA","1711","NA","1725","96444","227826","232350","14680","94221","1713","mousetracking operator preview effect","0","0","0","no","false","no","1680"
"neutral","undefined","1","undefined","undefined","white","no","legacy","legacy","legacy","0","relative","undefined","undefined","18","NA","0","0","0","0","0","0","0","34","34","0","15","0","no","03/17/19 22:36:56","A simple template for the mouse-tracking paradigm","yes","Experiment-FT.osexp","C:\Users\Kristen\Documents\opPreviewExperiment-master\procedure","no","mono","no","24","no","black","no","yes","1050","legacy","18","15","C:/Users/Kristen/Documents/opPreviewExperiment-master/procedure/subject-9.csv","legacy","Kafkaesque Koffka","3.2.6","add","0","a","NA","NA","l","l","68856","NA","NA","12954","68856","2","4099","legacy","small","1024","2","48000","-16","experiment","5_3_add_FNI.jpg","9","odd","legacy","232381","NA","165301","NA","NA","1711","NA","1725","96444","232381","237435","14680","94221","1713","mousetracking operator preview effect","0","0","0","no","false","no","1680"
"neutral","undefined","1","undefined","undefined","white","no","legacy","legacy","legacy","0","relative","undefined","undefined","19","NA","0","0","0","0","0","0","0","35","35","0","15","0","no","03/17/19 22:36:56","A simple template for the mouse-tracking paradigm","yes","Experiment-FT.osexp","C:\Users\Kristen\Documents\opPreviewExperiment-master\procedure","no","mono","no","24","no","black","no","yes","1050","legacy","19","15","C:/Users/Kristen/Documents/opPreviewExperiment-master/procedure/subject-9.csv","legacy","Kafkaesque Koffka","3.2.6","add","0","a","NA","NA","l","l","68856","NA","NA","12954","68856","2","2923","legacy","large","1024","2","48000","-16","experiment","8_4_add_FI.jpg","9","odd","legacy","237457","NA","165301","NA","NA","1711","NA","1725","96444","237457","241360","14680","94221","1713","mousetracking operator preview effect","0","0","0","no","false","no","1680"
"neutral","undefined","0","undefined","undefined","white","no","legacy","legacy","legacy","0","relative","undefined","undefined","20","NA","0","0","0","0","0","0","0","36","36","0","15","0","no","03/17/19 22:36:56","A simple template for the mouse-tracking paradigm","yes","Experiment-FT.osexp","C:\Users\Kristen\Documents\opPreviewExperiment-master\procedure","no","mono","no","24","no","black","no","yes","1050","legacy","20","15","C:/Users/Kristen/Documents/opPreviewExperiment-master/procedure/subject-9.csv","legacy","Kafkaesque Koffka","3.2.6","mult","0","l","NA","NA","l","l","68856","NA","NA","12954","68856","2","4770","legacy","large","1024","2","48000","-16","experiment","9_7_mult_FNI.jpg","9","odd","legacy","241385","NA","165301","NA","NA","1711","NA","1725","96444","241385","248158","14680","94221","1713","mousetracking operator preview effect","0","0","0","no","false","no","1680"
"negative","undefined","1","undefined","undefined","white","no","legacy","legacy","legacy","0","relative","undefined","undefined","21","NA","0","0","0","0","0","0","0","37","37","0","15","0","no","03/17/19 22:36:56","A simple template for the mouse-tracking paradigm","yes","Experiment-FT.osexp","C:\Users\Kristen\Documents\opPreviewExperiment-master\procedure","no","mono","no","24","no","black","no","yes","1050","legacy","21","15","C:/Users/Kristen/Documents/opPreviewExperiment-master/procedure/subject-9.csv","legacy","Kafkaesque Koffka","3.2.6","mult","0","l","NA","NA","l","l","68856","NA","NA","12954","68856","2","2240","legacy","large","1024","2","48000","-16","experiment","6_8_mult_true.jpg","9","odd","legacy","248200","NA","165301","NA","NA","1711","NA","1725","96444","248201","251584","14680","94221","1713","mousetracking operator preview effect","0","0","0","no","true","no","1680"
"neutral","undefined","1","undefined","undefined","white","no","legacy","legacy","legacy","0","relative","undefined","undefined","22","NA","0","0","0","0","0","0","0","38","38","0","15","0","no","03/17/19 22:36:56","A simple template for the mouse-tracking paradigm","yes","Experiment-FT.osexp","C:\Users\Kristen\Documents\opPreviewExperiment-master\procedure","no","mono","no","24","no","black","no","yes","1050","legacy","22","15","C:/Users/Kristen/Documents/opPreviewExperiment-master/procedure/subject-9.csv","legacy","Kafkaesque Koffka","3.2.6","mult","0","a","NA","NA","l","l","68856","NA","NA","12954","68856","2","2284","legacy","large","1024","2","48000","-16","experiment","4_9_mult_FI.jpg","9","odd","legacy","251604","NA","165301","NA","NA","1711","NA","1725","96444","251604","254869","14680","94221","1713","mousetracking operator preview effect","0","0","0","no","false","no","1680"
"neutral","undefined","1","undefined","undefined","white","no","legacy","legacy","legacy","0","relative","undefined","undefined","23","NA","0","0","0","0","0","0","0","39","39","0","15","0","no","03/17/19 22:36:56","A simple template for the mouse-tracking paradigm","yes","Experiment-FT.osexp","C:\Users\Kristen\Documents\opPreviewExperiment-master\procedure","no","mono","no","24","no","black","no","yes","1050","legacy","23","15","C:/Users/Kristen/Documents/opPreviewExperiment-master/procedure/subject-9.csv","legacy","Kafkaesque Koffka","3.2.6","mult","0","l","NA","NA","l","l","68856","NA","NA","12954","68856","2","2371","legacy","large","1024","2","48000","-16","experiment","6_8_mult_true.jpg","9","odd","legacy","254890","NA","165301","NA","NA","1711","NA","1725","96444","254890","258248","14680","94221","1713","mousetracking operator preview effect","0","0","0","no","true","no","1680"
"neutral","undefined","1","undefined","undefined","white","no","legacy","legacy","legacy","0","relative","undefined","undefined","24","NA","0","0","0","0","0","0","0","40","40","0","15","0","no","03/17/19 22:36:56","A simple template for the mouse-tracking paradigm","yes","Experiment-FT.osexp","C:\Users\Kristen\Documents\opPreviewExperiment-master\procedure","no","mono","no","24","no","black","no","yes","1050","legacy","24","15","C:/Users/Kristen/Documents/opPreviewExperiment-master/procedure/subject-9.csv","legacy","Kafkaesque Koffka","3.2.6","add","0","l","NA","NA","l","l","68856","NA","NA","12954","68856","2","1482","legacy","small","1024","2","48000","-16","experiment","8_2_add_true.jpg","9","odd","legacy","258278","NA","165301","NA","NA","1711","NA","1725","96444","258278","260740","14680","94221","1713","mousetracking operator preview effect","0","0","0","no","true","no","1680"
"negative","undefined","1","undefined","undefined","white","no","legacy","legacy","legacy","0","relative","undefined","undefined","25","NA","0","0","0","0","0","0","0","41","41","0","15","0","no","03/17/19 22:36:56","A simple template for the mouse-tracking paradigm","yes","Experiment-FT.osexp","C:\Users\Kristen\Documents\opPreviewExperiment-master\procedure","no","mono","no","24","no","black","no","yes","1050","legacy","25","15","C:/Users/Kristen/Documents/opPreviewExperiment-master/procedure/subject-9.csv","legacy","Kafkaesque Koffka","3.2.6","add","0","l","NA","NA","l","l","68856","NA","NA","12954","68856","2","1181","legacy","small","1024","2","48000","-16","experiment","8_2_add_true.jpg","9","odd","legacy","260766","NA","165301","NA","NA","1711","NA","1725","96444","260766","263102","14680","94221","1713","mousetracking operator preview effect","0","0","0","no","true","no","1680"
"negative","undefined","1","undefined","undefined","white","no","legacy","legacy","legacy","0","relative","undefined","undefined","26","NA","0","0","0","0","0","0","0","42","42","0","15","0","no","03/17/19 22:36:56","A simple template for the mouse-tracking paradigm","yes","Experiment-FT.osexp","C:\Users\Kristen\Documents\opPreviewExperiment-master\procedure","no","mono","no","24","no","black","no","yes","1050","legacy","26","15","C:/Users/Kristen/Documents/opPreviewExperiment-master/procedure/subject-9.csv","legacy","Kafkaesque Koffka","3.2.6","add","0","l","NA","NA","l","l","68856","NA","NA","12954","68856","2","1151","legacy","small","1024","2","48000","-16","experiment","2_7_add_true.jpg","9","odd","legacy","263143","NA","165301","NA","NA","1711","NA","1725","96444","263143","265452","14680","94221","1713","mousetracking operator preview effect","0","0","0","no","true","no","1680"
"neutral","undefined","1","undefined","undefined","white","no","legacy","legacy","legacy","0","relative","undefined","undefined","27","NA","0","0","0","0","0","0","0","43","43","0","15","0","no","03/17/19 22:36:56","A simple template for the mouse-tracking paradigm","yes","Experiment-FT.osexp","C:\Users\Kristen\Documents\opPreviewExperiment-master\procedure","no","mono","no","24","no","black","no","yes","1050","legacy","27","15","C:/Users/Kristen/Documents/opPreviewExperiment-master/procedure/subject-9.csv","legacy","Kafkaesque Koffka","3.2.6","mult","0","a","NA","NA","l","l","68856","NA","NA","12954","68856","2","3157","legacy","small","1024","2","48000","-16","experiment","5_3_mult_FI.jpg","9","odd","legacy","265485","NA","165301","NA","NA","1711","NA","1725","96444","265485","269628","14680","94221","1713","mousetracking operator preview effect","0","0","0","no","false","no","1680"
"neutral","undefined","1","undefined","undefined","white","no","legacy","legacy","legacy","0","relative","undefined","undefined","28","NA","0","0","0","0","0","0","0","44","44","0","15","0","no","03/17/19 22:36:56","A simple template for the mouse-tracking paradigm","yes","Experiment-FT.osexp","C:\Users\Kristen\Documents\opPreviewExperiment-master\procedure","no","mono","no","24","no","black","no","yes","1050","legacy","28","15","C:/Users/Kristen/Documents/opPreviewExperiment-master/procedure/subject-9.csv","legacy","Kafkaesque Koffka","3.2.6","add","0","a","NA","NA","l","l","68856","NA","NA","12954","68856","2","3385","legacy","large","1024","2","48000","-16","experiment","8_4_add_FNI.jpg","9","odd","legacy","269655","NA","165301","NA","NA","1711","NA","1725","96444","269655","274018","14680","94221","1713","mousetracking operator preview effect","0","0","0","no","false","no","1680"
"negative","undefined","1","undefined","undefined","white","no","legacy","legacy","legacy","0","relative","undefined","undefined","29","NA","0","0","0","0","0","0","0","45","45","0","15","0","no","03/17/19 22:36:56","A simple template for the mouse-tracking paradigm","yes","Experiment-FT.osexp","C:\Users\Kristen\Documents\opPreviewExperiment-master\procedure","no","mono","no","24","no","black","no","yes","1050","legacy","29","15","C:/Users/Kristen/Documents/opPreviewExperiment-master/procedure/subject-9.csv","legacy","Kafkaesque Koffka","3.2.6","mult","0","l","NA","NA","l","l","68856","NA","NA","12954","68856","2","2522","legacy","small","1024","2","48000","-16","experiment","2_7_mult_true.jpg","9","odd","legacy","274048","NA","165301","NA","NA","1711","NA","1725","96444","274048","277726","14680","94221","1713","mousetracking operator preview effect","0","0","0","no","true","no","1680"
"negative","undefined","1","undefined","undefined","white","no","legacy","legacy","legacy","0","relative","undefined","undefined","30","NA","0","0","0","0","0","0","0","46","46","0","15","0","no","03/17/19 22:36:56","A simple template for the mouse-tracking paradigm","yes","Experiment-FT.osexp","C:\Users\Kristen\Documents\opPreviewExperiment-master\procedure","no","mono","no","24","no","black","no","yes","1050","legacy","30","15","C:/Users/Kristen/Documents/opPreviewExperiment-master/procedure/subject-9.csv","legacy","Kafkaesque Koffka","3.2.6","add","0","a","NA","NA","l","l","68856","NA","NA","12954","68856","2","1789","legacy","small","1024","2","48000","-16","experiment","5_3_add_FNI.jpg","9","odd","legacy","277747","NA","165301","NA","NA","1711","NA","1725","96444","277747","280689","14680","94221","1713","mousetracking operator preview effect","0","0","0","no","false","no","1680"
"negative","undefined","1","undefined","undefined","white","no","legacy","legacy","legacy","0","relative","undefined","undefined","31","NA","0","0","0","0","0","0","0","47","47","0","15","0","no","03/17/19 22:36:56","A simple template for the mouse-tracking paradigm","yes","Experiment-FT.osexp","C:\Users\Kristen\Documents\opPreviewExperiment-master\procedure","no","mono","no","24","no","black","no","yes","1050","legacy","31","15","C:/Users/Kristen/Documents/opPreviewExperiment-master/procedure/subject-9.csv","legacy","Kafkaesque Koffka","3.2.6","add","0","a","NA","NA","l","l","68856","NA","NA","12954","68856","2","4613","legacy","large","1024","2","48000","-16","experiment","6_8_add_FI.jpg","9","odd","legacy","280714","NA","165301","NA","NA","1711","NA","1725","96444","280714","286482","14680","94221","1713","mousetracking operator preview effect","0","0","0","no","false","no","1680"
"neutral","undefined","1","undefined","undefined","white","no","legacy","legacy","legacy","0","relative","undefined","undefined","32","NA","0","0","0","0","0","0","0","48","48","0","15","0","no","03/17/19 22:36:56","A simple template for the mouse-tracking paradigm","yes","Experiment-FT.osexp","C:\Users\Kristen\Documents\opPreviewExperiment-master\procedure","no","mono","no","24","no","black","no","yes","1050","legacy","32","15","C:/Users/Kristen/Documents/opPreviewExperiment-master/procedure/subject-9.csv","legacy","Kafkaesque Koffka","3.2.6","add","0","l","NA","NA","l","l","68856","NA","NA","12954","68856","2","2180","legacy","large","1024","2","48000","-16","experiment","4_9_add_true.jpg","9","odd","legacy","286514","NA","165301","NA","NA","1711","NA","1725","96444","286514","289677","14680","94221","1713","mousetracking operator preview effect","0","0","0","no","true","no","1680"
"neutral","undefined","1","undefined","undefined","white","no","legacy","legacy","legacy","0","relative","undefined","undefined","33","NA","0","0","0","0","0","0","0","49","49","0","15","0","no","03/17/19 22:36:56","A simple template for the mouse-tracking paradigm","yes","Experiment-FT.osexp","C:\Users\Kristen\Documents\opPreviewExperiment-master\procedure","no","mono","no","24","no","black","no","yes","1050","legacy","33","15","C:/Users/Kristen/Documents/opPreviewExperiment-master/procedure/subject-9.csv","legacy","Kafkaesque Koffka","3.2.6","add","0","a","NA","NA","l","l","68856","NA","NA","12954","68856","2","2015","legacy","large","1024","2","48000","-16","experiment","4_9_add_FI.jpg","9","odd","legacy","289702","NA","165301","NA","NA","1711","NA","1725","96444","289702","292695","14680","94221","1713","mousetracking operator preview effect","0","0","0","no","false","no","1680"
"neutral","undefined","1","undefined","undefined","white","no","legacy","legacy","legacy","0","relative","undefined","undefined","34","NA","0","0","0","0","0","0","0","50","50","0","15","0","no","03/17/19 22:36:56","A simple template for the mouse-tracking paradigm","yes","Experiment-FT.osexp","C:\Users\Kristen\Documents\opPreviewExperiment-master\procedure","no","mono","no","24","no","black","no","yes","1050","legacy","34","15","C:/Users/Kristen/Documents/opPreviewExperiment-master/procedure/subject-9.csv","legacy","Kafkaesque Koffka","3.2.6","mult","0","a","NA","NA","l","l","68856","NA","NA","12954","68856","2","1638","legacy","small","1024","2","48000","-16","experiment","2_7_mult_FNI.jpg","9","odd","legacy","292717","NA","165301","NA","NA","1711","NA","1725","96444","292717","295335","14680","94221","1713","mousetracking operator preview effect","0","0","0","no","false","no","1680"
"neutral","undefined","1","undefined","undefined","white","no","legacy","legacy","legacy","0","relative","undefined","undefined","35","NA","0","0","0","0","0","0","0","51","51","0","15","0","no","03/17/19 22:36:56","A simple template for the mouse-tracking paradigm","yes","Experiment-FT.osexp","C:\Users\Kristen\Documents\opPreviewExperiment-master\procedure","no","mono","no","24","no","black","no","yes","1050","legacy","35","15","C:/Users/Kristen/Documents/opPreviewExperiment-master/procedure/subject-9.csv","legacy","Kafkaesque Koffka","3.2.6","mult","0","a","NA","NA","l","l","68856","NA","NA","12954","68856","2","1859","legacy","small","1024","2","48000","-16","experiment","8_2_mult_FNI.jpg","9","odd","legacy","295362","NA","165301","NA","NA","1711","NA","1725","96444","295362","298206","14680","94221","1713","mousetracking operator preview effect","0","0","0","no","false","no","1680"
"negative","undefined","1","undefined","undefined","white","no","legacy","legacy","legacy","0","relative","undefined","undefined","36","NA","0","0","0","0","0","0","0","52","52","0","15","0","no","03/17/19 22:36:56","A simple template for the mouse-tracking paradigm","yes","Experiment-FT.osexp","C:\Users\Kristen\Documents\opPreviewExperiment-master\procedure","no","mono","no","24","no","black","no","yes","1050","legacy","36","15","C:/Users/Kristen/Documents/opPreviewExperiment-master/procedure/subject-9.csv","legacy","Kafkaesque Koffka","3.2.6","mult","0","l","NA","NA","l","l","68856","NA","NA","12954","68856","2","1835","legacy","small","1024","2","48000","-16","experiment","3_6_mult_true.jpg","9","odd","legacy","298238","NA","165301","NA","NA","1711","NA","1725","96444","298238","301230","14680","94221","1713","mousetracking operator preview effect","0","0","0","no","true","no","1680"
"neutral","undefined","1","undefined","undefined","white","no","legacy","legacy","legacy","0","relative","undefined","undefined","37","NA","0","0","0","0","0","0","0","53","53","0","15","0","no","03/17/19 22:36:56","A simple template for the mouse-tracking paradigm","yes","Experiment-FT.osexp","C:\Users\Kristen\Documents\opPreviewExperiment-master\procedure","no","mono","no","24","no","black","no","yes","1050","legacy","37","15","C:/Users/Kristen/Documents/opPreviewExperiment-master/procedure/subject-9.csv","legacy","Kafkaesque Koffka","3.2.6","add","0","l","NA","NA","l","l","68856","NA","NA","12954","68856","2","1897","legacy","small","1024","2","48000","-16","experiment","3_6_add_true.jpg","9","odd","legacy","301263","NA","165301","NA","NA","1711","NA","1725","96444","301263","304143","14680","94221","1713","mousetracking operator preview effect","0","0","0","no","true","no","1680"
"negative","undefined","1","undefined","undefined","white","no","legacy","legacy","legacy","0","relative","undefined","undefined","38","NA","0","0","0","0","0","0","0","54","54","0","15","0","no","03/17/19 22:36:56","A simple template for the mouse-tracking paradigm","yes","Experiment-FT.osexp","C:\Users\Kristen\Documents\opPreviewExperiment-master\procedure","no","mono","no","24","no","black","no","yes","1050","legacy","38","15","C:/Users/Kristen/Documents/opPreviewExperiment-master/procedure/subject-9.csv","legacy","Kafkaesque Koffka","3.2.6","mult","0","l","NA","NA","l","l","68856","NA","NA","12954","68856","2","1602","legacy","large","1024","2","48000","-16","experiment","4_9_mult_true.jpg","9","odd","legacy","304165","NA","165301","NA","NA","1711","NA","1725","96444","304165","306921","14680","94221","1713","mousetracking operator preview effect","0","0","0","no","true","no","1680"
"negative","undefined","1","undefined","undefined","white","no","legacy","legacy","legacy","0","relative","undefined","undefined","39","NA","0","0","0","0","0","0","0","55","55","0","15","0","no","03/17/19 22:36:56","A simple template for the mouse-tracking paradigm","yes","Experiment-FT.osexp","C:\Users\Kristen\Documents\opPreviewExperiment-master\procedure","no","mono","no","24","no","black","no","yes","1050","legacy","39","15","C:/Users/Kristen/Documents/opPreviewExperiment-master/procedure/subject-9.csv","legacy","Kafkaesque Koffka","3.2.6","mult","0","l","NA","NA","l","l","68856","NA","NA","12954","68856","2","2073","legacy","large","1024","2","48000","-16","experiment","9_7_mult_true.jpg","9","odd","legacy","306950","NA","165301","NA","NA","1711","NA","1725","96444","306950","310173","14680","94221","1713","mousetracking operator preview effect","0","0","0","no","true","no","1680"
"negative","undefined","1","undefined","undefined","white","no","legacy","legacy","legacy","0","relative","undefined","undefined","40","NA","0","0","0","0","0","0","0","56","56","0","15","0","no","03/17/19 22:36:56","A simple template for the mouse-tracking paradigm","yes","Experiment-FT.osexp","C:\Users\Kristen\Documents\opPreviewExperiment-master\procedure","no","mono","no","24","no","black","no","yes","1050","legacy","40","15","C:/Users/Kristen/Documents/opPreviewExperiment-master/procedure/subject-9.csv","legacy","Kafkaesque Koffka","3.2.6","add","0","l","NA","NA","l","l","68856","NA","NA","12954","68856","2","1424","legacy","small","1024","2","48000","-16","experiment","8_2_add_true.jpg","9","odd","legacy","310203","NA","165301","NA","NA","1711","NA","1725","96444","310203","312780","14680","94221","1713","mousetracking operator preview effect","0","0","0","no","true","no","1680"
"neutral","undefined","1","undefined","undefined","white","no","legacy","legacy","legacy","0","relative","undefined","undefined","41","NA","0","0","0","0","0","0","0","57","57","0","15","0","no","03/17/19 22:36:56","A simple template for the mouse-tracking paradigm","yes","Experiment-FT.osexp","C:\Users\Kristen\Documents\opPreviewExperiment-master\procedure","no","mono","no","24","no","black","no","yes","1050","legacy","41","15","C:/Users/Kristen/Documents/opPreviewExperiment-master/procedure/subject-9.csv","legacy","Kafkaesque Koffka","3.2.6","add","0","l","NA","NA","l","l","68856","NA","NA","12954","68856","2","1290","legacy","large","1024","2","48000","-16","experiment","8_4_add_true.jpg","9","odd","legacy","312806","NA","165301","NA","NA","1711","NA","1725","96444","312806","315079","14680","94221","1713","mousetracking operator preview effect","0","0","0","no","true","no","1680"
"negative","undefined","1","undefined","undefined","white","no","legacy","legacy","legacy","0","relative","undefined","undefined","42","NA","0","0","0","0","0","0","0","58","58","0","15","0","no","03/17/19 22:36:56","A simple template for the mouse-tracking paradigm","yes","Experiment-FT.osexp","C:\Users\Kristen\Documents\opPreviewExperiment-master\procedure","no","mono","no","24","no","black","no","yes","1050","legacy","42","15","C:/Users/Kristen/Documents/opPreviewExperiment-master/procedure/subject-9.csv","legacy","Kafkaesque Koffka","3.2.6","add","0","l","NA","NA","l","l","68856","NA","NA","12954","68856","2","1859","legacy","large","1024","2","48000","-16","experiment","4_9_add_true.jpg","9","odd","legacy","315111","NA","165301","NA","NA","1711","NA","1725","96444","315111","318136","14680","94221","1713","mousetracking operator preview effect","0","0","0","no","true","no","1680"
"negative","undefined","1","undefined","undefined","white","no","legacy","legacy","legacy","0","relative","undefined","undefined","43","NA","0","0","0","0","0","0","0","59","59","0","15","0","no","03/17/19 22:36:56","A simple template for the mouse-tracking paradigm","yes","Experiment-FT.osexp","C:\Users\Kristen\Documents\opPreviewExperiment-master\procedure","no","mono","no","24","no","black","no","yes","1050","legacy","43","15","C:/Users/Kristen/Documents/opPreviewExperiment-master/procedure/subject-9.csv","legacy","Kafkaesque Koffka","3.2.6","mult","0","a","NA","NA","l","l","68856","NA","NA","12954","68856","2","1681","legacy","small","1024","2","48000","-16","experiment","8_2_mult_FNI.jpg","9","odd","legacy","318168","NA","165301","NA","NA","1711","NA","1725","96444","318169","321005","14680","94221","1713","mousetracking operator preview effect","0","0","0","no","false","no","1680"
"negative","undefined","1","undefined","undefined","white","no","legacy","legacy","legacy","0","relative","undefined","undefined","44","NA","0","0","0","0","0","0","0","60","60","0","15","0","no","03/17/19 22:36:56","A simple template for the mouse-tracking paradigm","yes","Experiment-FT.osexp","C:\Users\Kristen\Documents\opPreviewExperiment-master\procedure","no","mono","no","24","no","black","no","yes","1050","legacy","44","15","C:/Users/Kristen/Documents/opPreviewExperiment-master/procedure/subject-9.csv","legacy","Kafkaesque Koffka","3.2.6","mult","0","a","NA","NA","l","l","68856","NA","NA","12954","68856","2","1271","legacy","small","1024","2","48000","-16","experiment","3_6_mult_FNI.jpg","9","odd","legacy","321037","NA","165301","NA","NA","1711","NA","1725","96444","321037","323452","14680","94221","1713","mousetracking operator preview effect","0","0","0","no","false","no","1680"
"negative","undefined","1","undefined","undefined","white","no","legacy","legacy","legacy","0","relative","undefined","undefined","45","NA","0","0","0","0","0","0","0","61","61","0","15","0","no","03/17/19 22:36:56","A simple template for the mouse-tracking paradigm","yes","Experiment-FT.osexp","C:\Users\Kristen\Documents\opPreviewExperiment-master\procedure","no","mono","no","24","no","black","no","yes","1050","legacy","45","15","C:/Users/Kristen/Documents/opPreviewExperiment-master/procedure/subject-9.csv","legacy","Kafkaesque Koffka","3.2.6","add","0","a","NA","NA","l","l","68856","NA","NA","12954","68856","2","3992","legacy","small","1024","2","48000","-16","experiment","2_7_add_FI.jpg","9","odd","legacy","323482","NA","165301","NA","NA","1711","NA","1725","96444","323482","328633","14680","94221","1713","mousetracking operator preview effect","0","0","0","no","false","no","1680"
"neutral","undefined","1","undefined","undefined","white","no","legacy","legacy","legacy","0","relative","undefined","undefined","46","NA","0","0","0","0","0","0","0","62","62","0","15","0","no","03/17/19 22:36:56","A simple template for the mouse-tracking paradigm","yes","Experiment-FT.osexp","C:\Users\Kristen\Documents\opPreviewExperiment-master\procedure","no","mono","no","24","no","black","no","yes","1050","legacy","46","15","C:/Users/Kristen/Documents/opPreviewExperiment-master/procedure/subject-9.csv","legacy","Kafkaesque Koffka","3.2.6","add","0","a","NA","NA","l","l","68856","NA","NA","12954","68856","2","1751","legacy","large","1024","2","48000","-16","experiment","4_9_add_FNI.jpg","9","odd","legacy","328650","NA","165301","NA","NA","1711","NA","1725","96444","328650","331376","14680","94221","1713","mousetracking operator preview effect","0","0","0","no","false","no","1680"
"negative","undefined","1","undefined","undefined","white","no","legacy","legacy","legacy","0","relative","undefined","undefined","47","NA","0","0","0","0","0","0","0","63","63","0","15","0","no","03/17/19 22:36:56","A simple template for the mouse-tracking paradigm","yes","Experiment-FT.osexp","C:\Users\Kristen\Documents\opPreviewExperiment-master\procedure","no","mono","no","24","no","black","no","yes","1050","legacy","47","15","C:/Users/Kristen/Documents/opPreviewExperiment-master/procedure/subject-9.csv","legacy","Kafkaesque Koffka","3.2.6","mult","0","l","NA","NA","l","l","68856","NA","NA","12954","68856","2","1818","legacy","large","1024","2","48000","-16","experiment","9_7_mult_true.jpg","9","odd","legacy","331405","NA","165301","NA","NA","1711","NA","1725","96444","331405","334378","14680","94221","1713","mousetracking operator preview effect","0","0","0","no","true","no","1680"
"negative","undefined","1","undefined","undefined","white","no","legacy","legacy","legacy","0","relative","undefined","undefined","48","NA","0","0","0","0","0","0","0","64","64","0","15","0","no","03/17/19 22:36:56","A simple template for the mouse-tracking paradigm","yes","Experiment-FT.osexp","C:\Users\Kristen\Documents\opPreviewExperiment-master\procedure","no","mono","no","24","no","black","no","yes","1050","legacy","48","15","C:/Users/Kristen/Documents/opPreviewExperiment-master/procedure/subject-9.csv","legacy","Kafkaesque Koffka","3.2.6","add","0","l","NA","NA","l","l","68856","NA","NA","12954","68856","2","1704","legacy","large","1024","2","48000","-16","experiment","8_4_add_true.jpg","9","odd","legacy","334411","NA","165301","NA","NA","1711","NA","1725","96444","334411","337280","14680","94221","1713","mousetracking operator preview effect","0","0","0","no","true","no","1680"
"negative","undefined","1","undefined","undefined","white","no","legacy","legacy","legacy","0","relative","undefined","undefined","49","NA","0","0","0","0","0","0","0","65","65","0","15","0","no","03/17/19 22:36:56","A simple template for the mouse-tracking paradigm","yes","Experiment-FT.osexp","C:\Users\Kristen\Documents\opPreviewExperiment-master\procedure","no","mono","no","24","no","black","no","yes","1050","legacy","49","15","C:/Users/Kristen/Documents/opPreviewExperiment-master/procedure/subject-9.csv","legacy","Kafkaesque Koffka","3.2.6","add","0","l","NA","NA","l","l","68856","NA","NA","12954","68856","2","2907","legacy","large","1024","2","48000","-16","experiment","6_8_add_true.jpg","9","odd","legacy","337308","NA","165301","NA","NA","1711","NA","1725","96444","337308","341371","14680","94221","1713","mousetracking operator preview effect","0","0","0","no","true","no","1680"
"neutral","undefined","1","undefined","undefined","white","no","legacy","legacy","legacy","0","relative","undefined","undefined","50","NA","0","0","0","0","0","0","0","66","66","0","15","0","no","03/17/19 22:36:56","A simple template for the mouse-tracking paradigm","yes","Experiment-FT.osexp","C:\Users\Kristen\Documents\opPreviewExperiment-master\procedure","no","mono","no","24","no","black","no","yes","1050","legacy","50","15","C:/Users/Kristen/Documents/opPreviewExperiment-master/procedure/subject-9.csv","legacy","Kafkaesque Koffka","3.2.6","mult","0","l","NA","NA","l","l","68856","NA","NA","12954","68856","2","2072","legacy","large","1024","2","48000","-16","experiment","6_8_mult_true.jpg","9","odd","legacy","341398","NA","165301","NA","NA","1711","NA","1725","96444","341398","344449","14680","94221","1713","mousetracking operator preview effect","0","0","0","no","true","no","1680"
"negative","undefined","1","undefined","undefined","white","no","legacy","legacy","legacy","0","relative","undefined","undefined","51","NA","0","0","0","0","0","0","0","67","67","0","15","0","no","03/17/19 22:36:56","A simple template for the mouse-tracking paradigm","yes","Experiment-FT.osexp","C:\Users\Kristen\Documents\opPreviewExperiment-master\procedure","no","mono","no","24","no","black","no","yes","1050","legacy","51","15","C:/Users/Kristen/Documents/opPreviewExperiment-master/procedure/subject-9.csv","legacy","Kafkaesque Koffka","3.2.6","add","0","l","NA","NA","l","l","68856","NA","NA","12954","68856","2","1785","legacy","small","1024","2","48000","-16","experiment","3_6_add_true.jpg","9","odd","legacy","344478","NA","165301","NA","NA","1711","NA","1725","96444","344479","347436","14680","94221","1713","mousetracking operator preview effect","0","0","0","no","true","no","1680"
"neutral","undefined","1","undefined","undefined","white","no","legacy","legacy","legacy","0","relative","undefined","undefined","52","NA","0","0","0","0","0","0","0","68","68","0","15","0","no","03/17/19 22:36:56","A simple template for the mouse-tracking paradigm","yes","Experiment-FT.osexp","C:\Users\Kristen\Documents\opPreviewExperiment-master\procedure","no","mono","no","24","no","black","no","yes","1050","legacy","52","15","C:/Users/Kristen/Documents/opPreviewExperiment-master/procedure/subject-9.csv","legacy","Kafkaesque Koffka","3.2.6","mult","0","a","NA","NA","l","l","68856","NA","NA","12954","68856","2","1498","legacy","large","1024","2","48000","-16","experiment","6_8_mult_FNI.jpg","9","odd","legacy","347467","NA","165301","NA","NA","1711","NA","1725","96444","347467","349949","14680","94221","1713","mousetracking operator preview effect","0","0","0","no","false","no","1680"
"negative","undefined","1","undefined","undefined","white","no","legacy","legacy","legacy","0","relative","undefined","undefined","53","NA","0","0","0","0","0","0","0","69","69","0","15","0","no","03/17/19 22:36:56","A simple template for the mouse-tracking paradigm","yes","Experiment-FT.osexp","C:\Users\Kristen\Documents\opPreviewExperiment-master\procedure","no","mono","no","24","no","black","no","yes","1050","legacy","53","15","C:/Users/Kristen/Documents/opPreviewExperiment-master/procedure/subject-9.csv","legacy","Kafkaesque Koffka","3.2.6","mult","0","l","NA","NA","l","l","68856","NA","NA","12954","68856","2","2128","legacy","large","1024","2","48000","-16","experiment","8_4_mult_true.jpg","9","odd","legacy","349980","NA","165301","NA","NA","1711","NA","1725","96444","349980","353238","14680","94221","1713","mousetracking operator preview effect","0","0","0","no","true","no","1680"
"negative","undefined","1","undefined","undefined","white","no","legacy","legacy","legacy","0","relative","undefined","undefined","54","NA","0","0","0","0","0","0","0","70","70","0","15","0","no","03/17/19 22:36:56","A simple template for the mouse-tracking paradigm","yes","Experiment-FT.osexp","C:\Users\Kristen\Documents\opPreviewExperiment-master\procedure","no","mono","no","24","no","black","no","yes","1050","legacy","54","15","C:/Users/Kristen/Documents/opPreviewExperiment-master/procedure/subject-9.csv","legacy","Kafkaesque Koffka","3.2.6","add","0","a","NA","NA","l","l","68856","NA","NA","12954","68856","2","1447","legacy","small","1024","2","48000","-16","experiment","8_2_add_FNI.jpg","9","odd","legacy","353261","NA","165301","NA","NA","1711","NA","1725","96444","353261","355858","14680","94221","1713","mousetracking operator preview effect","0","0","0","no","false","no","1680"
"neutral","undefined","1","undefined","undefined","white","no","legacy","legacy","legacy","0","relative","undefined","undefined","55","NA","0","0","0","0","0","0","0","71","71","0","15","0","no","03/17/19 22:36:56","A simple template for the mouse-tracking paradigm","yes","Experiment-FT.osexp","C:\Users\Kristen\Documents\opPreviewExperiment-master\procedure","no","mono","no","24","no","black","no","yes","1050","legacy","55","15","C:/Users/Kristen/Documents/opPreviewExperiment-master/procedure/subject-9.csv","legacy","Kafkaesque Koffka","3.2.6","add","0","l","NA","NA","l","l","68856","NA","NA","12954","68856","2","3357","legacy","large","1024","2","48000","-16","experiment","6_8_add_true.jpg","9","odd","legacy","355891","NA","165301","NA","NA","1711","NA","1725","96444","355891","360233","14680","94221","1713","mousetracking operator preview effect","0","0","0","no","true","no","1680"
"negative","undefined","1","undefined","undefined","white","no","legacy","legacy","legacy","0","relative","undefined","undefined","56","NA","0","0","0","0","0","0","0","72","72","0","15","0","no","03/17/19 22:36:56","A simple template for the mouse-tracking paradigm","yes","Experiment-FT.osexp","C:\Users\Kristen\Documents\opPreviewExperiment-master\procedure","no","mono","no","24","no","black","no","yes","1050","legacy","56","15","C:/Users/Kristen/Documents/opPreviewExperiment-master/procedure/subject-9.csv","legacy","Kafkaesque Koffka","3.2.6","mult","0","a","NA","NA","l","l","68856","NA","NA","12954","68856","2","2044","legacy","large","1024","2","48000","-16","experiment","4_9_mult_FNI.jpg","9","odd","legacy","360264","NA","165301","NA","NA","1711","NA","1725","96444","360264","363460","14680","94221","1713","mousetracking operator preview effect","0","0","0","no","false","no","1680"
"neutral","undefined","1","undefined","undefined","white","no","legacy","legacy","legacy","0","relative","undefined","undefined","57","NA","0","0","0","0","0","0","0","73","73","0","15","0","no","03/17/19 22:36:56","A simple template for the mouse-tracking paradigm","yes","Experiment-FT.osexp","C:\Users\Kristen\Documents\opPreviewExperiment-master\procedure","no","mono","no","24","no","black","no","yes","1050","legacy","57","15","C:/Users/Kristen/Documents/opPreviewExperiment-master/procedure/subject-9.csv","legacy","Kafkaesque Koffka","3.2.6","mult","0","a","NA","NA","l","l","68856","NA","NA","12954","68856","2","1717","legacy","large","1024","2","48000","-16","experiment","6_8_mult_FI.jpg","9","odd","legacy","363480","NA","165301","NA","NA","1711","NA","1725","96444","363480","366177","14680","94221","1713","mousetracking operator preview effect","0","0","0","no","false","no","1680"
"neutral","undefined","1","undefined","undefined","white","no","legacy","legacy","legacy","0","relative","undefined","undefined","58","NA","0","0","0","0","0","0","0","74","74","0","15","0","no","03/17/19 22:36:56","A simple template for the mouse-tracking paradigm","yes","Experiment-FT.osexp","C:\Users\Kristen\Documents\opPreviewExperiment-master\procedure","no","mono","no","24","no","black","no","yes","1050","legacy","58","15","C:/Users/Kristen/Documents/opPreviewExperiment-master/procedure/subject-9.csv","legacy","Kafkaesque Koffka","3.2.6","mult","0","l","NA","NA","l","l","68856","NA","NA","12954","68856","2","1982","legacy","large","1024","2","48000","-16","experiment","4_9_mult_true.jpg","9","odd","legacy","366203","NA","165301","NA","NA","1711","NA","1725","96444","366203","369165","14680","94221","1713","mousetracking operator preview effect","0","0","0","no","true","no","1680"
"negative","undefined","1","undefined","undefined","white","no","legacy","legacy","legacy","0","relative","undefined","undefined","59","NA","0","0","0","0","0","0","0","75","75","0","15","0","no","03/17/19 22:36:56","A simple template for the mouse-tracking paradigm","yes","Experiment-FT.osexp","C:\Users\Kristen\Documents\opPreviewExperiment-master\procedure","no","mono","no","24","no","black","no","yes","1050","legacy","59","15","C:/Users/Kristen/Documents/opPreviewExperiment-master/procedure/subject-9.csv","legacy","Kafkaesque Koffka","3.2.6","mult","0","a","NA","NA","l","l","68856","NA","NA","12954","68856","2","1370","legacy","small","1024","2","48000","-16","experiment","3_6_mult_FI.jpg","9","odd","legacy","369197","NA","165301","NA","NA","1711","NA","1725","96444","369197","371720","14680","94221","1713","mousetracking operator preview effect","0","0","0","no","false","no","1680"
"neutral","undefined","1","undefined","undefined","white","no","legacy","legacy","legacy","0","relative","undefined","undefined","60","NA","0","0","0","0","0","0","0","76","76","0","15","0","no","03/17/19 22:36:56","A simple template for the mouse-tracking paradigm","yes","Experiment-FT.osexp","C:\Users\Kristen\Documents\opPreviewExperiment-master\procedure","no","mono","no","24","no","black","no","yes","1050","legacy","60","15","C:/Users/Kristen/Documents/opPreviewExperiment-master/procedure/subject-9.csv","legacy","Kafkaesque Koffka","3.2.6","add","0","l","NA","NA","l","l","68856","NA","NA","12954","68856","2","3179","legacy","large","1024","2","48000","-16","experiment","6_8_add_true.jpg","9","odd","legacy","371743","NA","165301","NA","NA","1711","NA","1725","96444","371743","375900","14680","94221","1713","mousetracking operator preview effect","0","0","0","no","true","no","1680"
"negative","undefined","1","undefined","undefined","white","no","legacy","legacy","legacy","0","relative","undefined","undefined","61","NA","0","0","0","0","0","0","0","77","77","0","15","0","no","03/17/19 22:36:56","A simple template for the mouse-tracking paradigm","yes","Experiment-FT.osexp","C:\Users\Kristen\Documents\opPreviewExperiment-master\procedure","no","mono","no","24","no","black","no","yes","1050","legacy","61","15","C:/Users/Kristen/Documents/opPreviewExperiment-master/procedure/subject-9.csv","legacy","Kafkaesque Koffka","3.2.6","add","0","a","NA","NA","l","l","68856","NA","NA","12954","68856","2","2286","legacy","large","1024","2","48000","-16","experiment","4_9_add_FNI.jpg","9","odd","legacy","375932","NA","165301","NA","NA","1711","NA","1725","96444","375932","379373","14680","94221","1713","mousetracking operator preview effect","0","0","0","no","false","no","1680"
"neutral","undefined","0","undefined","undefined","white","no","legacy","legacy","legacy","0","relative","undefined","undefined","62","NA","0","0","0","0","0","0","0","78","78","0","15","0","no","03/17/19 22:36:56","A simple template for the mouse-tracking paradigm","yes","Experiment-FT.osexp","C:\Users\Kristen\Documents\opPreviewExperiment-master\procedure","no","mono","no","24","no","black","no","yes","1050","legacy","62","15","C:/Users/Kristen/Documents/opPreviewExperiment-master/procedure/subject-9.csv","legacy","Kafkaesque Koffka","3.2.6","add","0","a","NA","NA","l","l","68856","NA","NA","12954","68856","2","2152","legacy","small","1024","2","48000","-16","experiment","5_3_add_true.jpg","9","odd","legacy","379405","NA","165301","NA","NA","1711","NA","1725","96444","379405","383572","14680","94221","1713","mousetracking operator preview effect","0","0","0","no","true","no","1680"
"neutral","undefined","1","undefined","undefined","white","no","legacy","legacy","legacy","0","relative","undefined","undefined","63","NA","0","0","0","0","0","0","0","79","79","0","15","0","no","03/17/19 22:36:56","A simple template for the mouse-tracking paradigm","yes","Experiment-FT.osexp","C:\Users\Kristen\Documents\opPreviewExperiment-master\procedure","no","mono","no","24","no","black","no","yes","1050","legacy","63","15","C:/Users/Kristen/Documents/opPreviewExperiment-master/procedure/subject-9.csv","legacy","Kafkaesque Koffka","3.2.6","add","0","a","NA","NA","l","l","68856","NA","NA","12954","68856","2","2865","legacy","small","1024","2","48000","-16","experiment","3_6_add_FI.jpg","9","odd","legacy","383609","NA","165301","NA","NA","1711","NA","1725","96444","383610","387482","14680","94221","1713","mousetracking operator preview effect","0","0","0","no","false","no","1680"
"negative","undefined","1","undefined","undefined","white","no","legacy","legacy","legacy","0","relative","undefined","undefined","64","NA","0","0","0","0","0","0","0","80","80","0","15","0","no","03/17/19 22:36:56","A simple template for the mouse-tracking paradigm","yes","Experiment-FT.osexp","C:\Users\Kristen\Documents\opPreviewExperiment-master\procedure","no","mono","no","24","no","black","no","yes","1050","legacy","64","15","C:/Users/Kristen/Documents/opPreviewExperiment-master/procedure/subject-9.csv","legacy","Kafkaesque Koffka","3.2.6","add","0","a","NA","NA","l","l","68856","NA","NA","12954","68856","2","2720","legacy","large","1024","2","48000","-16","experiment","9_7_add_FNI.jpg","9","odd","legacy","387514","NA","165301","NA","NA","1711","NA","1725","96444","387514","391391","14680","94221","1713","mousetracking operator preview effect","0","0","0","no","false","no","1680"
"negative","undefined","1","undefined","undefined","white","no","legacy","legacy","legacy","0","relative","undefined","undefined","65","NA","0","0","0","0","0","0","0","81","81","0","15","0","no","03/17/19 22:36:56","A simple template for the mouse-tracking paradigm","yes","Experiment-FT.osexp","C:\Users\Kristen\Documents\opPreviewExperiment-master\procedure","no","mono","no","24","no","black","no","yes","1050","legacy","65","15","C:/Users/Kristen/Documents/opPreviewExperiment-master/procedure/subject-9.csv","legacy","Kafkaesque Koffka","3.2.6","mult","0","a","NA","NA","l","l","68856","NA","NA","12954","68856","2","2502","legacy","small","1024","2","48000","-16","experiment","2_7_mult_FI.jpg","9","odd","legacy","391420","NA","165301","NA","NA","1711","NA","1725","96444","391420","395078","14680","94221","1713","mousetracking operator preview effect","0","0","0","no","false","no","1680"
"negative","undefined","0","undefined","undefined","white","no","legacy","legacy","legacy","0","relative","undefined","undefined","66","NA","0","0","0","0","0","0","0","82","82","0","15","0","no","03/17/19 22:36:56","A simple template for the mouse-tracking paradigm","yes","Experiment-FT.osexp","C:\Users\Kristen\Documents\opPreviewExperiment-master\procedure","no","mono","no","24","no","black","no","yes","1050","legacy","66","15","C:/Users/Kristen/Documents/opPreviewExperiment-master/procedure/subject-9.csv","legacy","Kafkaesque Koffka","3.2.6","add","0","a","NA","NA","l","l","68856","NA","NA","12954","68856","2","1594","legacy","large","1024","2","48000","-16","experiment","4_9_add_true.jpg","9","odd","legacy","395098","NA","165301","NA","NA","1711","NA","1725","96444","395098","398877","14680","94221","1713","mousetracking operator preview effect","0","0","0","no","true","no","1680"
"negative","undefined","1","undefined","undefined","white","no","legacy","legacy","legacy","0","relative","undefined","undefined","67","NA","0","0","0","0","0","0","0","83","83","0","15","0","no","03/17/19 22:36:56","A simple template for the mouse-tracking paradigm","yes","Experiment-FT.osexp","C:\Users\Kristen\Documents\opPreviewExperiment-master\procedure","no","mono","no","24","no","black","no","yes","1050","legacy","67","15","C:/Users/Kristen/Documents/opPreviewExperiment-master/procedure/subject-9.csv","legacy","Kafkaesque Koffka","3.2.6","mult","0","l","NA","NA","l","l","68856","NA","NA","12954","68856","2","1884","legacy","small","1024","2","48000","-16","experiment","2_7_mult_true.jpg","9","odd","legacy","398918","NA","165301","NA","NA","1711","NA","1725","96444","398919","401967","14680","94221","1713","mousetracking operator preview effect","0","0","0","no","true","no","1680"
"negative","undefined","1","undefined","undefined","white","no","legacy","legacy","legacy","0","relative","undefined","undefined","68","NA","0","0","0","0","0","0","0","84","84","0","15","0","no","03/17/19 22:36:56","A simple template for the mouse-tracking paradigm","yes","Experiment-FT.osexp","C:\Users\Kristen\Documents\opPreviewExperiment-master\procedure","no","mono","no","24","no","black","no","yes","1050","legacy","68","15","C:/Users/Kristen/Documents/opPreviewExperiment-master/procedure/subject-9.csv","legacy","Kafkaesque Koffka","3.2.6","add","0","a","NA","NA","l","l","68856","NA","NA","12954","68856","2","3381","legacy","small","1024","2","48000","-16","experiment","3_6_add_FI.jpg","9","odd","legacy","401992","NA","165301","NA","NA","1711","NA","1725","96444","401992","406527","14680","94221","1713","mousetracking operator preview effect","0","0","0","no","false","no","1680"
"negative","undefined","1","undefined","undefined","white","no","legacy","legacy","legacy","0","relative","undefined","undefined","69","NA","0","0","0","0","0","0","0","85","85","0","15","0","no","03/17/19 22:36:56","A simple template for the mouse-tracking paradigm","yes","Experiment-FT.osexp","C:\Users\Kristen\Documents\opPreviewExperiment-master\procedure","no","mono","no","24","no","black","no","yes","1050","legacy","69","15","C:/Users/Kristen/Documents/opPreviewExperiment-master/procedure/subject-9.csv","legacy","Kafkaesque Koffka","3.2.6","mult","0","l","NA","NA","l","l","68856","NA","NA","12954","68856","2","1577","legacy","small","1024","2","48000","-16","experiment","3_6_mult_true.jpg","9","odd","legacy","406552","NA","165301","NA","NA","1711","NA","1725","96444","406552","409282","14680","94221","1713","mousetracking operator preview effect","0","0","0","no","true","no","1680"
"negative","undefined","1","undefined","undefined","white","no","legacy","legacy","legacy","0","relative","undefined","undefined","70","NA","0","0","0","0","0","0","0","86","86","0","15","0","no","03/17/19 22:36:56","A simple template for the mouse-tracking paradigm","yes","Experiment-FT.osexp","C:\Users\Kristen\Documents\opPreviewExperiment-master\procedure","no","mono","no","24","no","black","no","yes","1050","legacy","70","15","C:/Users/Kristen/Documents/opPreviewExperiment-master/procedure/subject-9.csv","legacy","Kafkaesque Koffka","3.2.6","mult","0","l","NA","NA","l","l","68856","NA","NA","12954","68856","2","2353","legacy","large","1024","2","48000","-16","experiment","6_8_mult_true.jpg","9","odd","legacy","409307","NA","165301","NA","NA","1711","NA","1725","96444","409307","412815","14680","94221","1713","mousetracking operator preview effect","0","0","0","no","true","no","1680"
"neutral","undefined","1","undefined","undefined","white","no","legacy","legacy","legacy","0","relative","undefined","undefined","71","NA","0","0","0","0","0","0","0","87","87","0","15","0","no","03/17/19 22:36:56","A simple template for the mouse-tracking paradigm","yes","Experiment-FT.osexp","C:\Users\Kristen\Documents\opPreviewExperiment-master\procedure","no","mono","no","24","no","black","no","yes","1050","legacy","71","15","C:/Users/Kristen/Documents/opPreviewExperiment-master/procedure/subject-9.csv","legacy","Kafkaesque Koffka","3.2.6","mult","0","l","NA","NA","l","l","68856","NA","NA","12954","68856","2","2092","legacy","large","1024","2","48000","-16","experiment","8_4_mult_true.jpg","9","odd","legacy","412846","NA","165301","NA","NA","1711","NA","1725","96444","412846","415896","14680","94221","1713","mousetracking operator preview effect","0","0","0","no","true","no","1680"
"negative","undefined","1","undefined","undefined","white","no","legacy","legacy","legacy","0","relative","undefined","undefined","72","NA","0","0","0","0","0","0","0","88","88","0","15","0","no","03/17/19 22:36:56","A simple template for the mouse-tracking paradigm","yes","Experiment-FT.osexp","C:\Users\Kristen\Documents\opPreviewExperiment-master\procedure","no","mono","no","24","no","black","no","yes","1050","legacy","72","15","C:/Users/Kristen/Documents/opPreviewExperiment-master/procedure/subject-9.csv","legacy","Kafkaesque Koffka","3.2.6","mult","0","l","NA","NA","l","l","68856","NA","NA","12954","68856","2","2167","legacy","large","1024","2","48000","-16","experiment","4_9_mult_true.jpg","9","odd","legacy","415928","NA","165301","NA","NA","1711","NA","1725","96444","415928","419255","14680","94221","1713","mousetracking operator preview effect","0","0","0","no","true","no","1680"
"negative","undefined","1","undefined","undefined","white","no","legacy","legacy","legacy","0","relative","undefined","undefined","73","NA","0","0","0","0","0","0","0","89","89","0","15","0","no","03/17/19 22:36:56","A simple template for the mouse-tracking paradigm","yes","Experiment-FT.osexp","C:\Users\Kristen\Documents\opPreviewExperiment-master\procedure","no","mono","no","24","no","black","no","yes","1050","legacy","73","15","C:/Users/Kristen/Documents/opPreviewExperiment-master/procedure/subject-9.csv","legacy","Kafkaesque Koffka","3.2.6","mult","0","a","NA","NA","l","l","68856","NA","NA","12954","68856","2","1843","legacy","small","1024","2","48000","-16","experiment","2_7_mult_FNI.jpg","9","odd","legacy","419280","NA","165301","NA","NA","1711","NA","1725","96444","419280","422273","14680","94221","1713","mousetracking operator preview effect","0","0","0","no","false","no","1680"
"negative","undefined","1","undefined","undefined","white","no","legacy","legacy","legacy","0","relative","undefined","undefined","74","NA","0","0","0","0","0","0","0","90","90","0","15","0","no","03/17/19 22:36:56","A simple template for the mouse-tracking paradigm","yes","Experiment-FT.osexp","C:\Users\Kristen\Documents\opPreviewExperiment-master\procedure","no","mono","no","24","no","black","no","yes","1050","legacy","74","15","C:/Users/Kristen/Documents/opPreviewExperiment-master/procedure/subject-9.csv","legacy","Kafkaesque Koffka","3.2.6","mult","0","a","NA","NA","l","l","68856","NA","NA","12954","68856","2","1445","legacy","small","1024","2","48000","-16","experiment","5_3_mult_FI.jpg","9","odd","legacy","422295","NA","165301","NA","NA","1711","NA","1725","96444","422295","424894","14680","94221","1713","mousetracking operator preview effect","0","0","0","no","false","no","1680"
"negative","undefined","1","undefined","undefined","white","no","legacy","legacy","legacy","0","relative","undefined","undefined","75","NA","0","0","0","0","0","0","0","91","91","0","15","0","no","03/17/19 22:36:56","A simple template for the mouse-tracking paradigm","yes","Experiment-FT.osexp","C:\Users\Kristen\Documents\opPreviewExperiment-master\procedure","no","mono","no","24","no","black","no","yes","1050","legacy","75","15","C:/Users/Kristen/Documents/opPreviewExperiment-master/procedure/subject-9.csv","legacy","Kafkaesque Koffka","3.2.6","mult","0","a","NA","NA","l","l","68856","NA","NA","12954","68856","2","1484","legacy","large","1024","2","48000","-16","experiment","6_8_mult_FNI.jpg","9","odd","legacy","424926","NA","165301","NA","NA","1711","NA","1725","96444","424926","427570","14680","94221","1713","mousetracking operator preview effect","0","0","0","no","false","no","1680"
"negative","undefined","1","undefined","undefined","white","no","legacy","legacy","legacy","0","relative","undefined","undefined","76","NA","0","0","0","0","0","0","0","92","92","0","15","0","no","03/17/19 22:36:56","A simple template for the mouse-tracking paradigm","yes","Experiment-FT.osexp","C:\Users\Kristen\Documents\opPreviewExperiment-master\procedure","no","mono","no","24","no","black","no","yes","1050","legacy","76","15","C:/Users/Kristen/Documents/opPreviewExperiment-master/procedure/subject-9.csv","legacy","Kafkaesque Koffka","3.2.6","mult","0","a","NA","NA","l","l","68856","NA","NA","12954","68856","2","1201","legacy","small","1024","2","48000","-16","experiment","5_3_mult_FNI.jpg","9","odd","legacy","427599","NA","165301","NA","NA","1711","NA","1725","96444","427599","429961","14680","94221","1713","mousetracking operator preview effect","0","0","0","no","false","no","1680"
"negative","undefined","1","undefined","undefined","white","no","legacy","legacy","legacy","0","relative","undefined","undefined","77","NA","0","0","0","0","0","0","0","93","93","0","15","0","no","03/17/19 22:36:56","A simple template for the mouse-tracking paradigm","yes","Experiment-FT.osexp","C:\Users\Kristen\Documents\opPreviewExperiment-master\procedure","no","mono","no","24","no","black","no","yes","1050","legacy","77","15","C:/Users/Kristen/Documents/opPreviewExperiment-master/procedure/subject-9.csv","legacy","Kafkaesque Koffka","3.2.6","mult","0","l","NA","NA","l","l","68856","NA","NA","12954","68856","2","1845","legacy","small","1024","2","48000","-16","experiment","5_3_mult_true.jpg","9","odd","legacy","429994","NA","165301","NA","NA","1711","NA","1725","96444","429994","432983","14680","94221","1713","mousetracking operator preview effect","0","0","0","no","true","no","1680"
"negative","undefined","0","undefined","undefined","white","no","legacy","legacy","legacy","0","relative","undefined","undefined","78","NA","0","0","0","0","0","0","0","94","94","0","15","0","no","03/17/19 22:36:56","A simple template for the mouse-tracking paradigm","yes","Experiment-FT.osexp","C:\Users\Kristen\Documents\opPreviewExperiment-master\procedure","no","mono","no","24","no","black","no","yes","1050","legacy","78","15","C:/Users/Kristen/Documents/opPreviewExperiment-master/procedure/subject-9.csv","legacy","Kafkaesque Koffka","3.2.6","add","0","a","NA","NA","l","l","68856","NA","NA","12954","68856","2","1402","legacy","large","1024","2","48000","-16","experiment","8_4_add_true.jpg","9","odd","legacy","433015","NA","165301","NA","NA","1711","NA","1725","96444","433015","436601","14680","94221","1713","mousetracking operator preview effect","0","0","0","no","true","no","1680"
"negative","undefined","1","undefined","undefined","white","no","legacy","legacy","legacy","0","relative","undefined","undefined","79","NA","0","0","0","0","0","0","0","95","95","0","15","0","no","03/17/19 22:36:56","A simple template for the mouse-tracking paradigm","yes","Experiment-FT.osexp","C:\Users\Kristen\Documents\opPreviewExperiment-master\procedure","no","mono","no","24","no","black","no","yes","1050","legacy","79","15","C:/Users/Kristen/Documents/opPreviewExperiment-master/procedure/subject-9.csv","legacy","Kafkaesque Koffka","3.2.6","add","0","a","NA","NA","l","l","68856","NA","NA","12954","68856","2","1940","legacy","small","1024","2","48000","-16","experiment","5_3_add_FI.jpg","9","odd","legacy","436646","NA","165301","NA","NA","1711","NA","1725","96444","436647","439737","14680","94221","1713","mousetracking operator preview effect","0","0","0","no","false","no","1680"
"neutral","undefined","1","undefined","undefined","white","no","legacy","legacy","legacy","0","relative","undefined","undefined","80","NA","0","0","0","0","0","0","0","96","96","0","15","0","no","03/17/19 22:36:56","A simple template for the mouse-tracking paradigm","yes","Experiment-FT.osexp","C:\Users\Kristen\Documents\opPreviewExperiment-master\procedure","no","mono","no","24","no","black","no","yes","1050","legacy","80","15","C:/Users/Kristen/Documents/opPreviewExperiment-master/procedure/subject-9.csv","legacy","Kafkaesque Koffka","3.2.6","add","0","a","NA","NA","l","l","68856","NA","NA","12954","68856","2","3481","legacy","large","1024","2","48000","-16","experiment","6_8_add_FNI.jpg","9","odd","legacy","439768","NA","165301","NA","NA","1711","NA","1725","96444","439768","444230","14680","94221","1713","mousetracking operator preview effect","0","0","0","no","false","no","1680"
"neutral","undefined","1","undefined","undefined","white","no","legacy","legacy","legacy","0","relative","undefined","undefined","81","NA","0","0","0","0","0","0","0","97","97","0","15","0","no","03/17/19 22:36:56","A simple template for the mouse-tracking paradigm","yes","Experiment-FT.osexp","C:\Users\Kristen\Documents\opPreviewExperiment-master\procedure","no","mono","no","24","no","black","no","yes","1050","legacy","81","15","C:/Users/Kristen/Documents/opPreviewExperiment-master/procedure/subject-9.csv","legacy","Kafkaesque Koffka","3.2.6","add","0","a","NA","NA","l","l","68856","NA","NA","12954","68856","2","2620","legacy","large","1024","2","48000","-16","experiment","9_7_add_FNI.jpg","9","odd","legacy","444251","NA","165301","NA","NA","1711","NA","1725","96444","444251","447852","14680","94221","1713","mousetracking operator preview effect","0","0","0","no","false","no","1680"
"negative","undefined","1","undefined","undefined","white","no","legacy","legacy","legacy","0","relative","undefined","undefined","82","NA","0","0","0","0","0","0","0","98","98","0","15","0","no","03/17/19 22:36:56","A simple template for the mouse-tracking paradigm","yes","Experiment-FT.osexp","C:\Users\Kristen\Documents\opPreviewExperiment-master\procedure","no","mono","no","24","no","black","no","yes","1050","legacy","82","15","C:/Users/Kristen/Documents/opPreviewExperiment-master/procedure/subject-9.csv","legacy","Kafkaesque Koffka","3.2.6","add","0","a","NA","NA","l","l","68856","NA","NA","12954","68856","2","2806","legacy","large","1024","2","48000","-16","experiment","4_9_add_FI.jpg","9","odd","legacy","447876","NA","165301","NA","NA","1711","NA","1725","96444","447876","451836","14680","94221","1713","mousetracking operator preview effect","0","0","0","no","false","no","1680"
"neutral","undefined","1","undefined","undefined","white","no","legacy","legacy","legacy","0","relative","undefined","undefined","83","NA","0","0","0","0","0","0","0","99","99","0","15","0","no","03/17/19 22:36:56","A simple template for the mouse-tracking paradigm","yes","Experiment-FT.osexp","C:\Users\Kristen\Documents\opPreviewExperiment-master\procedure","no","mono","no","24","no","black","no","yes","1050","legacy","83","15","C:/Users/Kristen/Documents/opPreviewExperiment-master/procedure/subject-9.csv","legacy","Kafkaesque Koffka","3.2.6","mult","0","a","NA","NA","l","l","68856","NA","NA","12954","68856","2","2572","legacy","small","1024","2","48000","-16","experiment","3_6_mult_FI.jpg","9","odd","legacy","451868","NA","165301","NA","NA","1711","NA","1725","96444","451868","455420","14680","94221","1713","mousetracking operator preview effect","0","0","0","no","false","no","1680"
"neutral","undefined","1","undefined","undefined","white","no","legacy","legacy","legacy","0","relative","undefined","undefined","84","NA","0","0","0","0","0","0","0","100","100","0","15","0","no","03/17/19 22:36:56","A simple template for the mouse-tracking paradigm","yes","Experiment-FT.osexp","C:\Users\Kristen\Documents\opPreviewExperiment-master\procedure","no","mono","no","24","no","black","no","yes","1050","legacy","84","15","C:/Users/Kristen/Documents/opPreviewExperiment-master/procedure/subject-9.csv","legacy","Kafkaesque Koffka","3.2.6","add","0","a","NA","NA","l","l","68856","NA","NA","12954","68856","2","1689","legacy","small","1024","2","48000","-16","experiment","2_7_add_FNI.jpg","9","odd","legacy","455451","NA","165301","NA","NA","1711","NA","1725","96444","455451","458119","14680","94221","1713","mousetracking operator preview effect","0","0","0","no","false","no","1680"
"neutral","undefined","1","undefined","undefined","white","no","legacy","legacy","legacy","0","relative","undefined","undefined","85","NA","0","0","0","0","0","0","0","101","101","0","15","0","no","03/17/19 22:36:56","A simple template for the mouse-tracking paradigm","yes","Experiment-FT.osexp","C:\Users\Kristen\Documents\opPreviewExperiment-master\procedure","no","mono","no","24","no","black","no","yes","1050","legacy","85","15","C:/Users/Kristen/Documents/opPreviewExperiment-master/procedure/subject-9.csv","legacy","Kafkaesque Koffka","3.2.6","add","0","a","NA","NA","l","l","68856","NA","NA","12954","68856","2","2624","legacy","large","1024","2","48000","-16","experiment","9_7_add_FI.jpg","9","odd","legacy","458150","NA","165301","NA","NA","1711","NA","1725","96444","458150","461762","14680","94221","1713","mousetracking operator preview effect","0","0","0","no","false","no","1680"
"neutral","undefined","1","undefined","undefined","white","no","legacy","legacy","legacy","0","relative","undefined","undefined","86","NA","0","0","0","0","0","0","0","102","102","0","15","0","no","03/17/19 22:36:56","A simple template for the mouse-tracking paradigm","yes","Experiment-FT.osexp","C:\Users\Kristen\Documents\opPreviewExperiment-master\procedure","no","mono","no","24","no","black","no","yes","1050","legacy","86","15","C:/Users/Kristen/Documents/opPreviewExperiment-master/procedure/subject-9.csv","legacy","Kafkaesque Koffka","3.2.6","add","0","l","NA","NA","l","l","68856","NA","NA","12954","68856","2","2019","legacy","small","1024","2","48000","-16","experiment","2_7_add_true.jpg","9","odd","legacy","461794","NA","165301","NA","NA","1711","NA","1725","96444","461794","464795","14680","94221","1713","mousetracking operator preview effect","0","0","0","no","true","no","1680"
"negative","undefined","1","undefined","undefined","white","no","legacy","legacy","legacy","0","relative","undefined","undefined","87","NA","0","0","0","0","0","0","0","103","103","0","15","0","no","03/17/19 22:36:56","A simple template for the mouse-tracking paradigm","yes","Experiment-FT.osexp","C:\Users\Kristen\Documents\opPreviewExperiment-master\procedure","no","mono","no","24","no","black","no","yes","1050","legacy","87","15","C:/Users/Kristen/Documents/opPreviewExperiment-master/procedure/subject-9.csv","legacy","Kafkaesque Koffka","3.2.6","add","0","a","NA","NA","l","l","68856","NA","NA","12954","68856","2","2432","legacy","small","1024","2","48000","-16","experiment","3_6_add_FNI.jpg","9","odd","legacy","464827","NA","165301","NA","NA","1711","NA","1725","96444","464827","468411","14680","94221","1713","mousetracking operator preview effect","0","0","0","no","false","no","1680"
"neutral","undefined","1","undefined","undefined","white","no","legacy","legacy","legacy","0","relative","undefined","undefined","88","NA","0","0","0","0","0","0","0","104","104","0","15","0","no","03/17/19 22:36:56","A simple template for the mouse-tracking paradigm","yes","Experiment-FT.osexp","C:\Users\Kristen\Documents\opPreviewExperiment-master\procedure","no","mono","no","24","no","black","no","yes","1050","legacy","88","15","C:/Users/Kristen/Documents/opPreviewExperiment-master/procedure/subject-9.csv","legacy","Kafkaesque Koffka","3.2.6","add","0","l","NA","NA","l","l","68856","NA","NA","12954","68856","2","1552","legacy","large","1024","2","48000","-16","experiment","8_4_add_true.jpg","9","odd","legacy","468436","NA","165301","NA","NA","1711","NA","1725","96444","468436","470966","14680","94221","1713","mousetracking operator preview effect","0","0","0","no","true","no","1680"
"negative","undefined","1","undefined","undefined","white","no","legacy","legacy","legacy","0","relative","undefined","undefined","89","NA","0","0","0","0","0","0","0","105","105","0","15","0","no","03/17/19 22:36:56","A simple template for the mouse-tracking paradigm","yes","Experiment-FT.osexp","C:\Users\Kristen\Documents\opPreviewExperiment-master\procedure","no","mono","no","24","no","black","no","yes","1050","legacy","89","15","C:/Users/Kristen/Documents/opPreviewExperiment-master/procedure/subject-9.csv","legacy","Kafkaesque Koffka","3.2.6","add","0","a","NA","NA","l","l","68856","NA","NA","12954","68856","2","1339","legacy","small","1024","2","48000","-16","experiment","2_7_add_FNI.jpg","9","odd","legacy","470987","NA","165301","NA","NA","1711","NA","1725","96444","470987","473480","14680","94221","1713","mousetracking operator preview effect","0","0","0","no","false","no","1680"
"negative","undefined","1","undefined","undefined","white","no","legacy","legacy","legacy","0","relative","undefined","undefined","90","NA","0","0","0","0","0","0","0","106","106","0","15","0","no","03/17/19 22:36:56","A simple template for the mouse-tracking paradigm","yes","Experiment-FT.osexp","C:\Users\Kristen\Documents\opPreviewExperiment-master\procedure","no","mono","no","24","no","black","no","yes","1050","legacy","90","15","C:/Users/Kristen/Documents/opPreviewExperiment-master/procedure/subject-9.csv","legacy","Kafkaesque Koffka","3.2.6","add","0","l","NA","NA","l","l","68856","NA","NA","12954","68856","2","1799","legacy","large","1024","2","48000","-16","experiment","9_7_add_true.jpg","9","odd","legacy","473512","NA","165301","NA","NA","1711","NA","1725","96444","473512","476469","14680","94221","1713","mousetracking operator preview effect","0","0","0","no","true","no","1680"
"neutral","undefined","1","undefined","undefined","white","no","legacy","legacy","legacy","0","relative","undefined","undefined","91","NA","0","0","0","0","0","0","0","107","107","0","15","0","no","03/17/19 22:36:56","A simple template for the mouse-tracking paradigm","yes","Experiment-FT.osexp","C:\Users\Kristen\Documents\opPreviewExperiment-master\procedure","no","mono","no","24","no","black","no","yes","1050","legacy","91","15","C:/Users/Kristen/Documents/opPreviewExperiment-master/procedure/subject-9.csv","legacy","Kafkaesque Koffka","3.2.6","add","0","a","NA","NA","l","l","68856","NA","NA","12954","68856","2","4130","legacy","small","1024","2","48000","-16","experiment","2_7_add_FI.jpg","9","odd","legacy","476500","NA","165301","NA","NA","1711","NA","1725","96444","476501","481615","14680","94221","1713","mousetracking operator preview effect","0","0","0","no","false","no","1680"
"neutral","undefined","1","undefined","undefined","white","no","legacy","legacy","legacy","0","relative","undefined","undefined","92","NA","0","0","0","0","0","0","0","108","108","0","15","0","no","03/17/19 22:36:56","A simple template for the mouse-tracking paradigm","yes","Experiment-FT.osexp","C:\Users\Kristen\Documents\opPreviewExperiment-master\procedure","no","mono","no","24","no","black","no","yes","1050","legacy","92","15","C:/Users/Kristen/Documents/opPreviewExperiment-master/procedure/subject-9.csv","legacy","Kafkaesque Koffka","3.2.6","mult","0","a","NA","NA","l","l","68856","NA","NA","12954","68856","2","3294","legacy","large","1024","2","48000","-16","experiment","4_9_mult_FNI.jpg","9","odd","legacy","481637","NA","165301","NA","NA","1711","NA","1725","96444","481637","485911","14680","94221","1713","mousetracking operator preview effect","0","0","0","no","false","no","1680"
