"SOAcondition","acc","accuracy","average_response_time","avg_rt","background","bidi","canvas_backend","clock_backend","color_backend","compensation","coordinates","correct","correct_instruction1","count_block1_sequence","count_block2_sequence","count_block_1","count_block_2","count_breakScreen","count_experiment","count_finish","count_instruction1","count_instruction2","count_keyboard_script","count_logger","count_practiceBlock","count_practice_sequence","count_setup_script","custom_cursor","datetime","description","disable_garbage_collection","experiment_file","experiment_path","font_bold","font_family","font_italic","font_size","font_underline","foreground","form_clicks","fullscreen","height","keyboard_backend","live_row","live_row_practiceBlock","logfile","mouse_backend","opensesame_codename","opensesame_version","operation","repeat_cycle","response","response_breakScreen","response_finish","response_instruction1","response_instruction2","response_time","response_time_breakScreen","response_time_finish","response_time_instruction1","response_time_instruction2","round_decimals","rt","sampler_backend","size","sound_buf_size","sound_channels","sound_freq","sound_sample_size","start","stimulus","subject_nr","subject_parity","synth_backend","time_block1_sequence","time_block2_sequence","time_block_1","time_block_2","time_breakScreen","time_experiment","time_finish","time_instruction1","time_instruction2","time_keyboard_script","time_logger","time_practiceBlock","time_practice_sequence","time_setup_script","title","total_correct","total_response_time","total_responses","transparent_variables","truth","uniform_coordinates","width"
"neutral","undefined","1","undefined","undefined","white","no","legacy","legacy","legacy","0","relative","undefined","undefined","NA","NA","0","0","0","0","0","0","0","0","0","0","0","0","no","03/22/19 10:42:45","A simple template for the mouse-tracking paradigm","yes","Experiment-TF.osexp","C:\Users\Kristen\Documents\opPreviewExperiment-master\procedure","no","mono","no","24","no","black","no","yes","1050","legacy","0","0","C:/Users/Kristen/Documents/opPreviewExperiment-master/procedure/subject-10.csv","legacy","Kafkaesque Koffka","3.2.6","add","0","a","NA","NA","a","NA","51932","NA","NA","51932","NA","2","2703","legacy","NA","1024","2","48000","-16","experiment","1_4_add_T.jpg","10","even","legacy","NA","NA","NA","NA","NA","3001","NA","3018","NA","54954","58648","54951","54954","3003","mousetracking operator preview effect","0","0","0","no","true","no","1680"
"negative","undefined","1","undefined","undefined","white","no","legacy","legacy","legacy","0","relative","undefined","undefined","NA","NA","0","0","0","0","0","0","0","1","1","0","1","0","no","03/22/19 10:42:45","A simple template for the mouse-tracking paradigm","yes","Experiment-TF.osexp","C:\Users\Kristen\Documents\opPreviewExperiment-master\procedure","no","mono","no","24","no","black","no","yes","1050","legacy","1","1","C:/Users/Kristen/Documents/opPreviewExperiment-master/procedure/subject-10.csv","legacy","Kafkaesque Koffka","3.2.6","add","0","a","NA","NA","a","NA","51932","NA","NA","51932","NA","2","1775","legacy","NA","1024","2","48000","-16","experiment","1_4_add_T.jpg","10","even","legacy","NA","NA","NA","NA","NA","3001","NA","3018","NA","58680","61561","54951","58680","3003","mousetracking operator preview effect","0","0","0","no","true","no","1680"
"negative","undefined","1","undefined","undefined","white","no","legacy","legacy","legacy","0","relative","undefined","undefined","NA","NA","0","0","0","0","0","0","0","2","2","0","2","0","no","03/22/19 10:42:45","A simple template for the mouse-tracking paradigm","yes","Experiment-TF.osexp","C:\Users\Kristen\Documents\opPreviewExperiment-master\procedure","no","mono","no","24","no","black","no","yes","1050","legacy","2","2","C:/Users/Kristen/Documents/opPreviewExperiment-master/procedure/subject-10.csv","legacy","Kafkaesque Koffka","3.2.6","mult","0","a","NA","NA","a","NA","51932","NA","NA","51932","NA","2","1829","legacy","NA","1024","2","48000","-16","experiment","1_4_mult_T.jpg","10","even","legacy","NA","NA","NA","NA","NA","3001","NA","3018","NA","61581","64532","54951","61580","3003","mousetracking operator preview effect","0","0","0","no","true","no","1680"
"neutral","undefined","1","undefined","undefined","white","no","legacy","legacy","legacy","0","relative","undefined","undefined","NA","NA","0","0","0","0","0","0","0","3","3","0","3","0","no","03/22/19 10:42:45","A simple template for the mouse-tracking paradigm","yes","Experiment-TF.osexp","C:\Users\Kristen\Documents\opPreviewExperiment-master\procedure","no","mono","no","24","no","black","no","yes","1050","legacy","3","3","C:/Users/Kristen/Documents/opPreviewExperiment-master/procedure/subject-10.csv","legacy","Kafkaesque Koffka","3.2.6","add","0","a","NA","NA","a","NA","51932","NA","NA","51932","NA","2","2349","legacy","NA","1024","2","48000","-16","experiment","0_3_add_T.jpg","10","even","legacy","NA","NA","NA","NA","NA","3001","NA","3018","NA","64554","67852","54951","64554","3003","mousetracking operator preview effect","0","0","0","no","true","no","1680"
"neutral","undefined","1","undefined","undefined","white","no","legacy","legacy","legacy","0","relative","undefined","undefined","NA","NA","0","0","0","0","0","0","0","4","4","0","4","0","no","03/22/19 10:42:45","A simple template for the mouse-tracking paradigm","yes","Experiment-TF.osexp","C:\Users\Kristen\Documents\opPreviewExperiment-master\procedure","no","mono","no","24","no","black","no","yes","1050","legacy","4","4","C:/Users/Kristen/Documents/opPreviewExperiment-master/procedure/subject-10.csv","legacy","Kafkaesque Koffka","3.2.6","mult","0","l","NA","NA","a","NA","51932","NA","NA","51932","NA","2","2214","legacy","NA","1024","2","48000","-16","experiment","0_3_mult_F.jpg","10","even","legacy","NA","NA","NA","NA","NA","3001","NA","3018","NA","67879","71041","54951","67879","3003","mousetracking operator preview effect","0","0","0","no","false","no","1680"
"neutral","undefined","1","undefined","undefined","white","no","legacy","legacy","legacy","0","relative","undefined","undefined","NA","NA","0","0","0","0","0","0","0","5","5","0","5","0","no","03/22/19 10:42:45","A simple template for the mouse-tracking paradigm","yes","Experiment-TF.osexp","C:\Users\Kristen\Documents\opPreviewExperiment-master\procedure","no","mono","no","24","no","black","no","yes","1050","legacy","5","5","C:/Users/Kristen/Documents/opPreviewExperiment-master/procedure/subject-10.csv","legacy","Kafkaesque Koffka","3.2.6","mult","0","l","NA","NA","a","NA","51932","NA","NA","51932","NA","2","1862","legacy","NA","1024","2","48000","-16","experiment","1_4_mult_F.jpg","10","even","legacy","NA","NA","NA","NA","NA","3001","NA","3018","NA","71066","73873","54951","71066","3003","mousetracking operator preview effect","0","0","0","no","false","no","1680"
"neutral","undefined","1","undefined","undefined","white","no","legacy","legacy","legacy","0","relative","undefined","undefined","NA","NA","0","0","0","0","0","0","0","6","6","0","6","0","no","03/22/19 10:42:45","A simple template for the mouse-tracking paradigm","yes","Experiment-TF.osexp","C:\Users\Kristen\Documents\opPreviewExperiment-master\procedure","no","mono","no","24","no","black","no","yes","1050","legacy","6","6","C:/Users/Kristen/Documents/opPreviewExperiment-master/procedure/subject-10.csv","legacy","Kafkaesque Koffka","3.2.6","add","0","l","NA","NA","a","NA","51932","NA","NA","51932","NA","2","1999","legacy","NA","1024","2","48000","-16","experiment","1_4_add_F.jpg","10","even","legacy","NA","NA","NA","NA","NA","3001","NA","3018","NA","73895","76839","54951","73895","3003","mousetracking operator preview effect","0","0","0","no","false","no","1680"
"negative","undefined","1","undefined","undefined","white","no","legacy","legacy","legacy","0","relative","undefined","undefined","NA","NA","0","0","0","0","0","0","0","7","7","0","7","0","no","03/22/19 10:42:45","A simple template for the mouse-tracking paradigm","yes","Experiment-TF.osexp","C:\Users\Kristen\Documents\opPreviewExperiment-master\procedure","no","mono","no","24","no","black","no","yes","1050","legacy","7","7","C:/Users/Kristen/Documents/opPreviewExperiment-master/procedure/subject-10.csv","legacy","Kafkaesque Koffka","3.2.6","mult","0","l","NA","NA","a","NA","51932","NA","NA","51932","NA","2","1782","legacy","NA","1024","2","48000","-16","experiment","1_4_mult_F.jpg","10","even","legacy","NA","NA","NA","NA","NA","3001","NA","3018","NA","76860","79741","54951","76860","3003","mousetracking operator preview effect","0","0","0","no","false","no","1680"
"negative","undefined","1","undefined","undefined","white","no","legacy","legacy","legacy","0","relative","undefined","undefined","NA","NA","0","0","0","0","0","0","0","8","8","0","8","0","no","03/22/19 10:42:45","A simple template for the mouse-tracking paradigm","yes","Experiment-TF.osexp","C:\Users\Kristen\Documents\opPreviewExperiment-master\procedure","no","mono","no","24","no","black","no","yes","1050","legacy","8","8","C:/Users/Kristen/Documents/opPreviewExperiment-master/procedure/subject-10.csv","legacy","Kafkaesque Koffka","3.2.6","add","0","l","NA","NA","a","NA","51932","NA","NA","51932","NA","2","2800","legacy","NA","1024","2","48000","-16","experiment","1_4_add_F.jpg","10","even","legacy","NA","NA","NA","NA","NA","3001","NA","3018","NA","79762","83661","54951","79762","3003","mousetracking operator preview effect","0","0","0","no","false","no","1680"
"neutral","undefined","1","undefined","undefined","white","no","legacy","legacy","legacy","0","relative","undefined","undefined","NA","NA","0","0","0","0","0","0","0","9","9","0","9","0","no","03/22/19 10:42:45","A simple template for the mouse-tracking paradigm","yes","Experiment-TF.osexp","C:\Users\Kristen\Documents\opPreviewExperiment-master\procedure","no","mono","no","24","no","black","no","yes","1050","legacy","9","9","C:/Users/Kristen/Documents/opPreviewExperiment-master/procedure/subject-10.csv","legacy","Kafkaesque Koffka","3.2.6","add","0","l","NA","NA","a","NA","51932","NA","NA","51932","NA","2","1586","legacy","NA","1024","2","48000","-16","experiment","0_3_add_F.jpg","10","even","legacy","NA","NA","NA","NA","NA","3001","NA","3018","NA","83682","86216","54951","83682","3003","mousetracking operator preview effect","0","0","0","no","false","no","1680"
"neutral","undefined","1","undefined","undefined","white","no","legacy","legacy","legacy","0","relative","undefined","undefined","NA","NA","0","0","0","0","0","0","0","10","10","0","10","0","no","03/22/19 10:42:45","A simple template for the mouse-tracking paradigm","yes","Experiment-TF.osexp","C:\Users\Kristen\Documents\opPreviewExperiment-master\procedure","no","mono","no","24","no","black","no","yes","1050","legacy","10","10","C:/Users/Kristen/Documents/opPreviewExperiment-master/procedure/subject-10.csv","legacy","Kafkaesque Koffka","3.2.6","mult","0","a","NA","NA","a","NA","51932","NA","NA","51932","NA","2","2287","legacy","NA","1024","2","48000","-16","experiment","0_3_mult_T.jpg","10","even","legacy","NA","NA","NA","NA","NA","3001","NA","3018","NA","86232","89464","54951","86232","3003","mousetracking operator preview effect","0","0","0","no","true","no","1680"
"neutral","undefined","1","undefined","undefined","white","no","legacy","legacy","legacy","0","relative","undefined","undefined","NA","NA","0","0","0","0","0","0","0","11","11","0","11","0","no","03/22/19 10:42:45","A simple template for the mouse-tracking paradigm","yes","Experiment-TF.osexp","C:\Users\Kristen\Documents\opPreviewExperiment-master\procedure","no","mono","no","24","no","black","no","yes","1050","legacy","11","11","C:/Users/Kristen/Documents/opPreviewExperiment-master/procedure/subject-10.csv","legacy","Kafkaesque Koffka","3.2.6","mult","0","a","NA","NA","a","NA","51932","NA","NA","51932","NA","2","2599","legacy","NA","1024","2","48000","-16","experiment","1_4_mult_T.jpg","10","even","legacy","NA","NA","NA","NA","NA","3001","NA","3018","NA","89494","93029","54951","89494","3003","mousetracking operator preview effect","0","0","0","no","true","no","1680"
"negative","undefined","1","undefined","undefined","white","no","legacy","legacy","legacy","0","relative","undefined","undefined","NA","NA","0","0","0","0","0","0","0","12","12","0","12","0","no","03/22/19 10:42:45","A simple template for the mouse-tracking paradigm","yes","Experiment-TF.osexp","C:\Users\Kristen\Documents\opPreviewExperiment-master\procedure","no","mono","no","24","no","black","no","yes","1050","legacy","12","12","C:/Users/Kristen/Documents/opPreviewExperiment-master/procedure/subject-10.csv","legacy","Kafkaesque Koffka","3.2.6","mult","0","a","NA","NA","a","NA","51932","NA","NA","51932","NA","2","1569","legacy","NA","1024","2","48000","-16","experiment","0_3_mult_T.jpg","10","even","legacy","NA","NA","NA","NA","NA","3001","NA","3018","NA","93052","95716","54951","93052","3003","mousetracking operator preview effect","0","0","0","no","true","no","1680"
"negative","undefined","1","undefined","undefined","white","no","legacy","legacy","legacy","0","relative","undefined","undefined","NA","NA","0","0","0","0","0","0","0","13","13","0","13","0","no","03/22/19 10:42:45","A simple template for the mouse-tracking paradigm","yes","Experiment-TF.osexp","C:\Users\Kristen\Documents\opPreviewExperiment-master\procedure","no","mono","no","24","no","black","no","yes","1050","legacy","13","13","C:/Users/Kristen/Documents/opPreviewExperiment-master/procedure/subject-10.csv","legacy","Kafkaesque Koffka","3.2.6","add","0","l","NA","NA","a","NA","51932","NA","NA","51932","NA","2","1686","legacy","NA","1024","2","48000","-16","experiment","0_3_add_F.jpg","10","even","legacy","NA","NA","NA","NA","NA","3001","NA","3018","NA","95740","98521","54951","95740","3003","mousetracking operator preview effect","0","0","0","no","false","no","1680"
"negative","undefined","1","undefined","undefined","white","no","legacy","legacy","legacy","0","relative","undefined","undefined","NA","NA","0","0","0","0","0","0","0","14","14","0","14","0","no","03/22/19 10:42:45","A simple template for the mouse-tracking paradigm","yes","Experiment-TF.osexp","C:\Users\Kristen\Documents\opPreviewExperiment-master\procedure","no","mono","no","24","no","black","no","yes","1050","legacy","14","14","C:/Users/Kristen/Documents/opPreviewExperiment-master/procedure/subject-10.csv","legacy","Kafkaesque Koffka","3.2.6","add","0","a","NA","NA","a","NA","51932","NA","NA","51932","NA","2","1418","legacy","NA","1024","2","48000","-16","experiment","0_3_add_T.jpg","10","even","legacy","NA","NA","NA","NA","NA","3001","NA","3018","NA","98543","101052","54951","98543","3003","mousetracking operator preview effect","0","0","0","no","true","no","1680"
"negative","undefined","1","undefined","undefined","white","no","legacy","legacy","legacy","0","relative","undefined","undefined","NA","NA","0","0","0","0","0","0","0","15","15","0","15","0","no","03/22/19 10:42:45","A simple template for the mouse-tracking paradigm","yes","Experiment-TF.osexp","C:\Users\Kristen\Documents\opPreviewExperiment-master\procedure","no","mono","no","24","no","black","no","yes","1050","legacy","15","15","C:/Users/Kristen/Documents/opPreviewExperiment-master/procedure/subject-10.csv","legacy","Kafkaesque Koffka","3.2.6","mult","0","l","NA","NA","a","NA","51932","NA","NA","51932","NA","2","3164","legacy","NA","1024","2","48000","-16","experiment","0_3_mult_F.jpg","10","even","legacy","NA","NA","NA","NA","NA","3001","NA","3018","NA","101074","105333","54951","101074","3003","mousetracking operator preview effect","0","0","0","no","false","no","1680"
"neutral","undefined","1","undefined","undefined","white","no","legacy","legacy","legacy","0","relative","undefined","undefined","0","NA","0","0","0","0","0","0","0","16","16","0","15","0","no","03/22/19 10:42:45","A simple template for the mouse-tracking paradigm","yes","Experiment-TF.osexp","C:\Users\Kristen\Documents\opPreviewExperiment-master\procedure","no","mono","no","24","no","black","no","yes","1050","legacy","0","15","C:/Users/Kristen/Documents/opPreviewExperiment-master/procedure/subject-10.csv","legacy","Kafkaesque Koffka","3.2.6","add","0","a","NA","NA","a","a","10960","NA","NA","51932","10960","2","2991","legacy","large","1024","2","48000","-16","experiment","9_7_add_true.jpg","10","even","legacy","116322","NA","116319","NA","NA","3001","NA","3018","105358","116322","120260","54951","101074","3003","mousetracking operator preview effect","0","0","0","no","true","no","1680"
"neutral","undefined","1","undefined","undefined","white","no","legacy","legacy","legacy","0","relative","undefined","undefined","1","NA","0","0","0","0","0","0","0","17","17","0","15","0","no","03/22/19 10:42:45","A simple template for the mouse-tracking paradigm","yes","Experiment-TF.osexp","C:\Users\Kristen\Documents\opPreviewExperiment-master\procedure","no","mono","no","24","no","black","no","yes","1050","legacy","1","15","C:/Users/Kristen/Documents/opPreviewExperiment-master/procedure/subject-10.csv","legacy","Kafkaesque Koffka","3.2.6","mult","0","a","NA","NA","a","a","10960","NA","NA","51932","10960","2","2204","legacy","small","1024","2","48000","-16","experiment","3_6_mult_true.jpg","10","even","legacy","120283","NA","116319","NA","NA","3001","NA","3018","105358","120283","123437","54951","101074","3003","mousetracking operator preview effect","0","0","0","no","true","no","1680"
"neutral","undefined","1","undefined","undefined","white","no","legacy","legacy","legacy","0","relative","undefined","undefined","2","NA","0","0","0","0","0","0","0","18","18","0","15","0","no","03/22/19 10:42:45","A simple template for the mouse-tracking paradigm","yes","Experiment-TF.osexp","C:\Users\Kristen\Documents\opPreviewExperiment-master\procedure","no","mono","no","24","no","black","no","yes","1050","legacy","2","15","C:/Users/Kristen/Documents/opPreviewExperiment-master/procedure/subject-10.csv","legacy","Kafkaesque Koffka","3.2.6","add","0","a","NA","NA","a","a","10960","NA","NA","51932","10960","2","2011","legacy","small","1024","2","48000","-16","experiment","3_6_add_true.jpg","10","even","legacy","123458","NA","116319","NA","NA","3001","NA","3018","105358","123458","126415","54951","101074","3003","mousetracking operator preview effect","0","0","0","no","true","no","1680"
"negative","undefined","1","undefined","undefined","white","no","legacy","legacy","legacy","0","relative","undefined","undefined","3","NA","0","0","0","0","0","0","0","19","19","0","15","0","no","03/22/19 10:42:45","A simple template for the mouse-tracking paradigm","yes","Experiment-TF.osexp","C:\Users\Kristen\Documents\opPreviewExperiment-master\procedure","no","mono","no","24","no","black","no","yes","1050","legacy","3","15","C:/Users/Kristen/Documents/opPreviewExperiment-master/procedure/subject-10.csv","legacy","Kafkaesque Koffka","3.2.6","mult","0","l","NA","NA","a","a","10960","NA","NA","51932","10960","2","1910","legacy","large","1024","2","48000","-16","experiment","9_7_mult_FI.jpg","10","even","legacy","126434","NA","116319","NA","NA","3001","NA","3018","105358","126434","129451","54951","101074","3003","mousetracking operator preview effect","0","0","0","no","false","no","1680"
"neutral","undefined","1","undefined","undefined","white","no","legacy","legacy","legacy","0","relative","undefined","undefined","4","NA","0","0","0","0","0","0","0","20","20","0","15","0","no","03/22/19 10:42:45","A simple template for the mouse-tracking paradigm","yes","Experiment-TF.osexp","C:\Users\Kristen\Documents\opPreviewExperiment-master\procedure","no","mono","no","24","no","black","no","yes","1050","legacy","4","15","C:/Users/Kristen/Documents/opPreviewExperiment-master/procedure/subject-10.csv","legacy","Kafkaesque Koffka","3.2.6","mult","0","l","NA","NA","a","a","10960","NA","NA","51932","10960","2","1403","legacy","small","1024","2","48000","-16","experiment","5_3_mult_FNI.jpg","10","even","legacy","129481","NA","116319","NA","NA","3001","NA","3018","105358","129481","131832","54951","101074","3003","mousetracking operator preview effect","0","0","0","no","false","no","1680"
"neutral","undefined","1","undefined","undefined","white","no","legacy","legacy","legacy","0","relative","undefined","undefined","5","NA","0","0","0","0","0","0","0","21","21","0","15","0","no","03/22/19 10:42:45","A simple template for the mouse-tracking paradigm","yes","Experiment-TF.osexp","C:\Users\Kristen\Documents\opPreviewExperiment-master\procedure","no","mono","no","24","no","black","no","yes","1050","legacy","5","15","C:/Users/Kristen/Documents/opPreviewExperiment-master/procedure/subject-10.csv","legacy","Kafkaesque Koffka","3.2.6","mult","0","a","NA","NA","a","a","10960","NA","NA","51932","10960","2","1435","legacy","small","1024","2","48000","-16","experiment","2_7_mult_true.jpg","10","even","legacy","131847","NA","116319","NA","NA","3001","NA","3018","105358","131847","134229","54951","101074","3003","mousetracking operator preview effect","0","0","0","no","true","no","1680"
"neutral","undefined","1","undefined","undefined","white","no","legacy","legacy","legacy","0","relative","undefined","undefined","6","NA","0","0","0","0","0","0","0","22","22","0","15","0","no","03/22/19 10:42:45","A simple template for the mouse-tracking paradigm","yes","Experiment-TF.osexp","C:\Users\Kristen\Documents\opPreviewExperiment-master\procedure","no","mono","no","24","no","black","no","yes","1050","legacy","6","15","C:/Users/Kristen/Documents/opPreviewExperiment-master/procedure/subject-10.csv","legacy","Kafkaesque Koffka","3.2.6","mult","0","l","NA","NA","a","a","10960","NA","NA","51932","10960","2","2332","legacy","small","1024","2","48000","-16","experiment","2_7_mult_FI.jpg","10","even","legacy","134251","NA","116319","NA","NA","3001","NA","3018","105358","134251","137526","54951","101074","3003","mousetracking operator preview effect","0","0","0","no","false","no","1680"
"negative","undefined","1","undefined","undefined","white","no","legacy","legacy","legacy","0","relative","undefined","undefined","7","NA","0","0","0","0","0","0","0","23","23","0","15","0","no","03/22/19 10:42:45","A simple template for the mouse-tracking paradigm","yes","Experiment-TF.osexp","C:\Users\Kristen\Documents\opPreviewExperiment-master\procedure","no","mono","no","24","no","black","no","yes","1050","legacy","7","15","C:/Users/Kristen/Documents/opPreviewExperiment-master/procedure/subject-10.csv","legacy","Kafkaesque Koffka","3.2.6","add","0","a","NA","NA","a","a","10960","NA","NA","51932","10960","2","4078","legacy","large","1024","2","48000","-16","experiment","6_8_add_true.jpg","10","even","legacy","137549","NA","116319","NA","NA","3001","NA","3018","105358","137549","142740","54951","101074","3003","mousetracking operator preview effect","0","0","0","no","true","no","1680"
"negative","undefined","1","undefined","undefined","white","no","legacy","legacy","legacy","0","relative","undefined","undefined","8","NA","0","0","0","0","0","0","0","24","24","0","15","0","no","03/22/19 10:42:45","A simple template for the mouse-tracking paradigm","yes","Experiment-TF.osexp","C:\Users\Kristen\Documents\opPreviewExperiment-master\procedure","no","mono","no","24","no","black","no","yes","1050","legacy","8","15","C:/Users/Kristen/Documents/opPreviewExperiment-master/procedure/subject-10.csv","legacy","Kafkaesque Koffka","3.2.6","add","0","a","NA","NA","a","a","10960","NA","NA","51932","10960","2","1287","legacy","small","1024","2","48000","-16","experiment","5_3_add_true.jpg","10","even","legacy","142761","NA","116319","NA","NA","3001","NA","3018","105358","142761","145156","54951","101074","3003","mousetracking operator preview effect","0","0","0","no","true","no","1680"
"negative","undefined","1","undefined","undefined","white","no","legacy","legacy","legacy","0","relative","undefined","undefined","9","NA","0","0","0","0","0","0","0","25","25","0","15","0","no","03/22/19 10:42:45","A simple template for the mouse-tracking paradigm","yes","Experiment-TF.osexp","C:\Users\Kristen\Documents\opPreviewExperiment-master\procedure","no","mono","no","24","no","black","no","yes","1050","legacy","9","15","C:/Users/Kristen/Documents/opPreviewExperiment-master/procedure/subject-10.csv","legacy","Kafkaesque Koffka","3.2.6","add","0","l","NA","NA","a","a","10960","NA","NA","51932","10960","2","2949","legacy","large","1024","2","48000","-16","experiment","4_9_add_FI.jpg","10","even","legacy","145175","NA","116319","NA","NA","3001","NA","3018","105358","145175","149231","54951","101074","3003","mousetracking operator preview effect","0","0","0","no","false","no","1680"
"neutral","undefined","1","undefined","undefined","white","no","legacy","legacy","legacy","0","relative","undefined","undefined","10","NA","0","0","0","0","0","0","0","26","26","0","15","0","no","03/22/19 10:42:45","A simple template for the mouse-tracking paradigm","yes","Experiment-TF.osexp","C:\Users\Kristen\Documents\opPreviewExperiment-master\procedure","no","mono","no","24","no","black","no","yes","1050","legacy","10","15","C:/Users/Kristen/Documents/opPreviewExperiment-master/procedure/subject-10.csv","legacy","Kafkaesque Koffka","3.2.6","mult","0","l","NA","NA","a","a","10960","NA","NA","51932","10960","2","1871","legacy","large","1024","2","48000","-16","experiment","4_9_mult_FI.jpg","10","even","legacy","149256","NA","116319","NA","NA","3001","NA","3018","105358","149256","152070","54951","101074","3003","mousetracking operator preview effect","0","0","0","no","false","no","1680"
"neutral","undefined","1","undefined","undefined","white","no","legacy","legacy","legacy","0","relative","undefined","undefined","11","NA","0","0","0","0","0","0","0","27","27","0","15","0","no","03/22/19 10:42:45","A simple template for the mouse-tracking paradigm","yes","Experiment-TF.osexp","C:\Users\Kristen\Documents\opPreviewExperiment-master\procedure","no","mono","no","24","no","black","no","yes","1050","legacy","11","15","C:/Users/Kristen/Documents/opPreviewExperiment-master/procedure/subject-10.csv","legacy","Kafkaesque Koffka","3.2.6","mult","0","l","NA","NA","a","a","10960","NA","NA","51932","10960","2","1961","legacy","small","1024","2","48000","-16","experiment","8_2_mult_FNI.jpg","10","even","legacy","152092","NA","116319","NA","NA","3001","NA","3018","105358","152092","155002","54951","101074","3003","mousetracking operator preview effect","0","0","0","no","false","no","1680"
"negative","undefined","1","undefined","undefined","white","no","legacy","legacy","legacy","0","relative","undefined","undefined","12","NA","0","0","0","0","0","0","0","28","28","0","15","0","no","03/22/19 10:42:45","A simple template for the mouse-tracking paradigm","yes","Experiment-TF.osexp","C:\Users\Kristen\Documents\opPreviewExperiment-master\procedure","no","mono","no","24","no","black","no","yes","1050","legacy","12","15","C:/Users/Kristen/Documents/opPreviewExperiment-master/procedure/subject-10.csv","legacy","Kafkaesque Koffka","3.2.6","mult","0","l","NA","NA","a","a","10960","NA","NA","51932","10960","2","1965","legacy","small","1024","2","48000","-16","experiment","8_2_mult_FI.jpg","10","even","legacy","155022","NA","116319","NA","NA","3001","NA","3018","105358","155022","158092","54951","101074","3003","mousetracking operator preview effect","0","0","0","no","false","no","1680"
"negative","undefined","1","undefined","undefined","white","no","legacy","legacy","legacy","0","relative","undefined","undefined","13","NA","0","0","0","0","0","0","0","29","29","0","15","0","no","03/22/19 10:42:45","A simple template for the mouse-tracking paradigm","yes","Experiment-TF.osexp","C:\Users\Kristen\Documents\opPreviewExperiment-master\procedure","no","mono","no","24","no","black","no","yes","1050","legacy","13","15","C:/Users/Kristen/Documents/opPreviewExperiment-master/procedure/subject-10.csv","legacy","Kafkaesque Koffka","3.2.6","mult","0","l","NA","NA","a","a","10960","NA","NA","51932","10960","2","1362","legacy","small","1024","2","48000","-16","experiment","5_3_mult_FNI.jpg","10","even","legacy","158115","NA","116319","NA","NA","3001","NA","3018","105358","158115","160572","54951","101074","3003","mousetracking operator preview effect","0","0","0","no","false","no","1680"
"neutral","undefined","1","undefined","undefined","white","no","legacy","legacy","legacy","0","relative","undefined","undefined","14","NA","0","0","0","0","0","0","0","30","30","0","15","0","no","03/22/19 10:42:45","A simple template for the mouse-tracking paradigm","yes","Experiment-TF.osexp","C:\Users\Kristen\Documents\opPreviewExperiment-master\procedure","no","mono","no","24","no","black","no","yes","1050","legacy","14","15","C:/Users/Kristen/Documents/opPreviewExperiment-master/procedure/subject-10.csv","legacy","Kafkaesque Koffka","3.2.6","add","0","a","NA","NA","a","a","10960","NA","NA","51932","10960","2","4188","legacy","large","1024","2","48000","-16","experiment","8_4_add_true.jpg","10","even","legacy","160594","NA","116319","NA","NA","3001","NA","3018","105358","160594","165725","54951","101074","3003","mousetracking operator preview effect","0","0","0","no","true","no","1680"
"negative","undefined","1","undefined","undefined","white","no","legacy","legacy","legacy","0","relative","undefined","undefined","15","NA","0","0","0","0","0","0","0","31","31","0","15","0","no","03/22/19 10:42:45","A simple template for the mouse-tracking paradigm","yes","Experiment-TF.osexp","C:\Users\Kristen\Documents\opPreviewExperiment-master\procedure","no","mono","no","24","no","black","no","yes","1050","legacy","15","15","C:/Users/Kristen/Documents/opPreviewExperiment-master/procedure/subject-10.csv","legacy","Kafkaesque Koffka","3.2.6","mult","0","a","NA","NA","a","a","10960","NA","NA","51932","10960","2","1909","legacy","small","1024","2","48000","-16","experiment","8_2_mult_true.jpg","10","even","legacy","165747","NA","116319","NA","NA","3001","NA","3018","105358","165747","168760","54951","101074","3003","mousetracking operator preview effect","0","0","0","no","true","no","1680"
"neutral","undefined","1","undefined","undefined","white","no","legacy","legacy","legacy","0","relative","undefined","undefined","16","NA","0","0","0","0","0","0","0","32","32","0","15","0","no","03/22/19 10:42:45","A simple template for the mouse-tracking paradigm","yes","Experiment-TF.osexp","C:\Users\Kristen\Documents\opPreviewExperiment-master\procedure","no","mono","no","24","no","black","no","yes","1050","legacy","16","15","C:/Users/Kristen/Documents/opPreviewExperiment-master/procedure/subject-10.csv","legacy","Kafkaesque Koffka","3.2.6","mult","0","l","NA","NA","a","a","10960","NA","NA","51932","10960","2","2769","legacy","large","1024","2","48000","-16","experiment","8_4_mult_FI.jpg","10","even","legacy","168781","NA","116319","NA","NA","3001","NA","3018","105358","168781","172501","54951","101074","3003","mousetracking operator preview effect","0","0","0","no","false","no","1680"
"negative","undefined","0","undefined","undefined","white","no","legacy","legacy","legacy","0","relative","undefined","undefined","17","NA","0","0","0","0","0","0","0","33","33","0","15","0","no","03/22/19 10:42:45","A simple template for the mouse-tracking paradigm","yes","Experiment-TF.osexp","C:\Users\Kristen\Documents\opPreviewExperiment-master\procedure","no","mono","no","24","no","black","no","yes","1050","legacy","17","15","C:/Users/Kristen/Documents/opPreviewExperiment-master/procedure/subject-10.csv","legacy","Kafkaesque Koffka","3.2.6","add","0","a","NA","NA","a","a","10960","NA","NA","51932","10960","2","1221","legacy","small","1024","2","48000","-16","experiment","8_2_add_FI.jpg","10","even","legacy","172520","NA","116319","NA","NA","3001","NA","3018","105358","172520","175873","54951","101074","3003","mousetracking operator preview effect","0","0","0","no","false","no","1680"
"negative","undefined","1","undefined","undefined","white","no","legacy","legacy","legacy","0","relative","undefined","undefined","18","NA","0","0","0","0","0","0","0","34","34","0","15","0","no","03/22/19 10:42:45","A simple template for the mouse-tracking paradigm","yes","Experiment-TF.osexp","C:\Users\Kristen\Documents\opPreviewExperiment-master\procedure","no","mono","no","24","no","black","no","yes","1050","legacy","18","15","C:/Users/Kristen/Documents/opPreviewExperiment-master/procedure/subject-10.csv","legacy","Kafkaesque Koffka","3.2.6","add","0","a","NA","NA","a","a","10960","NA","NA","51932","10960","2","1560","legacy","small","1024","2","48000","-16","experiment","3_6_add_true.jpg","10","even","legacy","175896","NA","116319","NA","NA","3001","NA","3018","105358","175896","178556","54951","101074","3003","mousetracking operator preview effect","0","0","0","no","true","no","1680"
"neutral","undefined","1","undefined","undefined","white","no","legacy","legacy","legacy","0","relative","undefined","undefined","19","NA","0","0","0","0","0","0","0","35","35","0","15","0","no","03/22/19 10:42:45","A simple template for the mouse-tracking paradigm","yes","Experiment-TF.osexp","C:\Users\Kristen\Documents\opPreviewExperiment-master\procedure","no","mono","no","24","no","black","no","yes","1050","legacy","19","15","C:/Users/Kristen/Documents/opPreviewExperiment-master/procedure/subject-10.csv","legacy","Kafkaesque Koffka","3.2.6","mult","0","a","NA","NA","a","a","10960","NA","NA","51932","10960","2","1271","legacy","small","1024","2","48000","-16","experiment","5_3_mult_true.jpg","10","even","legacy","178578","NA","116319","NA","NA","3001","NA","3018","105358","178578","180795","54951","101074","3003","mousetracking operator preview effect","0","0","0","no","true","no","1680"
"negative","undefined","1","undefined","undefined","white","no","legacy","legacy","legacy","0","relative","undefined","undefined","20","NA","0","0","0","0","0","0","0","36","36","0","15","0","no","03/22/19 10:42:45","A simple template for the mouse-tracking paradigm","yes","Experiment-TF.osexp","C:\Users\Kristen\Documents\opPreviewExperiment-master\procedure","no","mono","no","24","no","black","no","yes","1050","legacy","20","15","C:/Users/Kristen/Documents/opPreviewExperiment-master/procedure/subject-10.csv","legacy","Kafkaesque Koffka","3.2.6","mult","0","l","NA","NA","a","a","10960","NA","NA","51932","10960","2","2525","legacy","large","1024","2","48000","-16","experiment","8_4_mult_FNI.jpg","10","even","legacy","180818","NA","116319","NA","NA","3001","NA","3018","105358","180818","184449","54951","101074","3003","mousetracking operator preview effect","0","0","0","no","false","no","1680"
"negative","undefined","1","undefined","undefined","white","no","legacy","legacy","legacy","0","relative","undefined","undefined","21","NA","0","0","0","0","0","0","0","37","37","0","15","0","no","03/22/19 10:42:45","A simple template for the mouse-tracking paradigm","yes","Experiment-TF.osexp","C:\Users\Kristen\Documents\opPreviewExperiment-master\procedure","no","mono","no","24","no","black","no","yes","1050","legacy","21","15","C:/Users/Kristen/Documents/opPreviewExperiment-master/procedure/subject-10.csv","legacy","Kafkaesque Koffka","3.2.6","add","0","a","NA","NA","a","a","10960","NA","NA","51932","10960","2","2183","legacy","large","1024","2","48000","-16","experiment","8_4_add_true.jpg","10","even","legacy","184470","NA","116319","NA","NA","3001","NA","3018","105358","184470","187747","54951","101074","3003","mousetracking operator preview effect","0","0","0","no","true","no","1680"
"negative","undefined","1","undefined","undefined","white","no","legacy","legacy","legacy","0","relative","undefined","undefined","22","NA","0","0","0","0","0","0","0","38","38","0","15","0","no","03/22/19 10:42:45","A simple template for the mouse-tracking paradigm","yes","Experiment-TF.osexp","C:\Users\Kristen\Documents\opPreviewExperiment-master\procedure","no","mono","no","24","no","black","no","yes","1050","legacy","22","15","C:/Users/Kristen/Documents/opPreviewExperiment-master/procedure/subject-10.csv","legacy","Kafkaesque Koffka","3.2.6","add","0","a","NA","NA","a","a","10960","NA","NA","51932","10960","2","1438","legacy","small","1024","2","48000","-16","experiment","2_7_add_true.jpg","10","even","legacy","187767","NA","116319","NA","NA","3001","NA","3018","105358","187767","190307","54951","101074","3003","mousetracking operator preview effect","0","0","0","no","true","no","1680"
"neutral","undefined","1","undefined","undefined","white","no","legacy","legacy","legacy","0","relative","undefined","undefined","23","NA","0","0","0","0","0","0","0","39","39","0","15","0","no","03/22/19 10:42:45","A simple template for the mouse-tracking paradigm","yes","Experiment-TF.osexp","C:\Users\Kristen\Documents\opPreviewExperiment-master\procedure","no","mono","no","24","no","black","no","yes","1050","legacy","23","15","C:/Users/Kristen/Documents/opPreviewExperiment-master/procedure/subject-10.csv","legacy","Kafkaesque Koffka","3.2.6","mult","0","a","NA","NA","a","a","10960","NA","NA","51932","10960","2","1204","legacy","small","1024","2","48000","-16","experiment","8_2_mult_true.jpg","10","even","legacy","190329","NA","116319","NA","NA","3001","NA","3018","105358","190329","192469","54951","101074","3003","mousetracking operator preview effect","0","0","0","no","true","no","1680"
"neutral","undefined","0","undefined","undefined","white","no","legacy","legacy","legacy","0","relative","undefined","undefined","24","NA","0","0","0","0","0","0","0","40","40","0","15","0","no","03/22/19 10:42:45","A simple template for the mouse-tracking paradigm","yes","Experiment-TF.osexp","C:\Users\Kristen\Documents\opPreviewExperiment-master\procedure","no","mono","no","24","no","black","no","yes","1050","legacy","24","15","C:/Users/Kristen/Documents/opPreviewExperiment-master/procedure/subject-10.csv","legacy","Kafkaesque Koffka","3.2.6","add","0","a","NA","NA","a","a","10960","NA","NA","51932","10960","2","1296","legacy","small","1024","2","48000","-16","experiment","5_3_add_FI.jpg","10","even","legacy","192494","NA","116319","NA","NA","3001","NA","3018","105358","192494","195754","54951","101074","3003","mousetracking operator preview effect","0","0","0","no","false","no","1680"
"negative","undefined","1","undefined","undefined","white","no","legacy","legacy","legacy","0","relative","undefined","undefined","25","NA","0","0","0","0","0","0","0","41","41","0","15","0","no","03/22/19 10:42:45","A simple template for the mouse-tracking paradigm","yes","Experiment-TF.osexp","C:\Users\Kristen\Documents\opPreviewExperiment-master\procedure","no","mono","no","24","no","black","no","yes","1050","legacy","25","15","C:/Users/Kristen/Documents/opPreviewExperiment-master/procedure/subject-10.csv","legacy","Kafkaesque Koffka","3.2.6","add","0","a","NA","NA","a","a","10960","NA","NA","51932","10960","2","2003","legacy","small","1024","2","48000","-16","experiment","2_7_add_true.jpg","10","even","legacy","195778","NA","116319","NA","NA","3001","NA","3018","105358","195778","198881","54951","101074","3003","mousetracking operator preview effect","0","0","0","no","true","no","1680"
"neutral","undefined","1","undefined","undefined","white","no","legacy","legacy","legacy","0","relative","undefined","undefined","26","NA","0","0","0","0","0","0","0","42","42","0","15","0","no","03/22/19 10:42:45","A simple template for the mouse-tracking paradigm","yes","Experiment-TF.osexp","C:\Users\Kristen\Documents\opPreviewExperiment-master\procedure","no","mono","no","24","no","black","no","yes","1050","legacy","26","15","C:/Users/Kristen/Documents/opPreviewExperiment-master/procedure/subject-10.csv","legacy","Kafkaesque Koffka","3.2.6","add","0","l","NA","NA","a","a","10960","NA","NA","51932","10960","2","1736","legacy","large","1024","2","48000","-16","experiment","4_9_add_FI.jpg","10","even","legacy","198897","NA","116319","NA","NA","3001","NA","3018","105358","198897","201571","54951","101074","3003","mousetracking operator preview effect","0","0","0","no","false","no","1680"
"neutral","undefined","0","undefined","undefined","white","no","legacy","legacy","legacy","0","relative","undefined","undefined","27","NA","0","0","0","0","0","0","0","43","43","0","15","0","no","03/22/19 10:42:45","A simple template for the mouse-tracking paradigm","yes","Experiment-TF.osexp","C:\Users\Kristen\Documents\opPreviewExperiment-master\procedure","no","mono","no","24","no","black","no","yes","1050","legacy","27","15","C:/Users/Kristen/Documents/opPreviewExperiment-master/procedure/subject-10.csv","legacy","Kafkaesque Koffka","3.2.6","mult","0","l","NA","NA","a","a","10960","NA","NA","51932","10960","2","2553","legacy","large","1024","2","48000","-16","experiment","9_7_mult_true.jpg","10","even","legacy","201590","NA","116319","NA","NA","3001","NA","3018","105358","201590","206110","54951","101074","3003","mousetracking operator preview effect","0","0","0","no","true","no","1680"
"negative","undefined","1","undefined","undefined","white","no","legacy","legacy","legacy","0","relative","undefined","undefined","28","NA","0","0","0","0","0","0","0","44","44","0","15","0","no","03/22/19 10:42:45","A simple template for the mouse-tracking paradigm","yes","Experiment-TF.osexp","C:\Users\Kristen\Documents\opPreviewExperiment-master\procedure","no","mono","no","24","no","black","no","yes","1050","legacy","28","15","C:/Users/Kristen/Documents/opPreviewExperiment-master/procedure/subject-10.csv","legacy","Kafkaesque Koffka","3.2.6","mult","0","a","NA","NA","a","a","10960","NA","NA","51932","10960","2","1611","legacy","small","1024","2","48000","-16","experiment","8_2_mult_true.jpg","10","even","legacy","206129","NA","116319","NA","NA","3001","NA","3018","105358","206129","208838","54951","101074","3003","mousetracking operator preview effect","0","0","0","no","true","no","1680"
"neutral","undefined","1","undefined","undefined","white","no","legacy","legacy","legacy","0","relative","undefined","undefined","29","NA","0","0","0","0","0","0","0","45","45","0","15","0","no","03/22/19 10:42:45","A simple template for the mouse-tracking paradigm","yes","Experiment-TF.osexp","C:\Users\Kristen\Documents\opPreviewExperiment-master\procedure","no","mono","no","24","no","black","no","yes","1050","legacy","29","15","C:/Users/Kristen/Documents/opPreviewExperiment-master/procedure/subject-10.csv","legacy","Kafkaesque Koffka","3.2.6","mult","0","a","NA","NA","a","a","10960","NA","NA","51932","10960","2","1131","legacy","small","1024","2","48000","-16","experiment","3_6_mult_true.jpg","10","even","legacy","208860","NA","116319","NA","NA","3001","NA","3018","105358","208860","210930","54951","101074","3003","mousetracking operator preview effect","0","0","0","no","true","no","1680"
"neutral","undefined","1","undefined","undefined","white","no","legacy","legacy","legacy","0","relative","undefined","undefined","30","NA","0","0","0","0","0","0","0","46","46","0","15","0","no","03/22/19 10:42:45","A simple template for the mouse-tracking paradigm","yes","Experiment-TF.osexp","C:\Users\Kristen\Documents\opPreviewExperiment-master\procedure","no","mono","no","24","no","black","no","yes","1050","legacy","30","15","C:/Users/Kristen/Documents/opPreviewExperiment-master/procedure/subject-10.csv","legacy","Kafkaesque Koffka","3.2.6","add","0","a","NA","NA","a","a","10960","NA","NA","51932","10960","2","1998","legacy","small","1024","2","48000","-16","experiment","2_7_add_true.jpg","10","even","legacy","210953","NA","116319","NA","NA","3001","NA","3018","105358","210953","213891","54951","101074","3003","mousetracking operator preview effect","0","0","0","no","true","no","1680"
"negative","undefined","1","undefined","undefined","white","no","legacy","legacy","legacy","0","relative","undefined","undefined","31","NA","0","0","0","0","0","0","0","47","47","0","15","0","no","03/22/19 10:42:45","A simple template for the mouse-tracking paradigm","yes","Experiment-TF.osexp","C:\Users\Kristen\Documents\opPreviewExperiment-master\procedure","no","mono","no","24","no","black","no","yes","1050","legacy","31","15","C:/Users/Kristen/Documents/opPreviewExperiment-master/procedure/subject-10.csv","legacy","Kafkaesque Koffka","3.2.6","add","0","l","NA","NA","a","a","10960","NA","NA","51932","10960","2","1304","legacy","large","1024","2","48000","-16","experiment","9_7_add_FI.jpg","10","even","legacy","213915","NA","116319","NA","NA","3001","NA","3018","105358","213915","216324","54951","101074","3003","mousetracking operator preview effect","0","0","0","no","false","no","1680"
"neutral","undefined","1","undefined","undefined","white","no","legacy","legacy","legacy","0","relative","undefined","undefined","32","NA","0","0","0","0","0","0","0","48","48","0","15","0","no","03/22/19 10:42:45","A simple template for the mouse-tracking paradigm","yes","Experiment-TF.osexp","C:\Users\Kristen\Documents\opPreviewExperiment-master\procedure","no","mono","no","24","no","black","no","yes","1050","legacy","32","15","C:/Users/Kristen/Documents/opPreviewExperiment-master/procedure/subject-10.csv","legacy","Kafkaesque Koffka","3.2.6","mult","0","l","NA","NA","a","a","10960","NA","NA","51932","10960","2","1642","legacy","large","1024","2","48000","-16","experiment","4_9_mult_FNI.jpg","10","even","legacy","216344","NA","116319","NA","NA","3001","NA","3018","105358","216344","218928","54951","101074","3003","mousetracking operator preview effect","0","0","0","no","false","no","1680"
"neutral","undefined","1","undefined","undefined","white","no","legacy","legacy","legacy","0","relative","undefined","undefined","33","NA","0","0","0","0","0","0","0","49","49","0","15","0","no","03/22/19 10:42:45","A simple template for the mouse-tracking paradigm","yes","Experiment-TF.osexp","C:\Users\Kristen\Documents\opPreviewExperiment-master\procedure","no","mono","no","24","no","black","no","yes","1050","legacy","33","15","C:/Users/Kristen/Documents/opPreviewExperiment-master/procedure/subject-10.csv","legacy","Kafkaesque Koffka","3.2.6","mult","0","a","NA","NA","a","a","10960","NA","NA","51932","10960","2","1211","legacy","small","1024","2","48000","-16","experiment","5_3_mult_true.jpg","10","even","legacy","218950","NA","116319","NA","NA","3001","NA","3018","105358","218950","221098","54951","101074","3003","mousetracking operator preview effect","0","0","0","no","true","no","1680"
"neutral","undefined","1","undefined","undefined","white","no","legacy","legacy","legacy","0","relative","undefined","undefined","34","NA","0","0","0","0","0","0","0","50","50","0","15","0","no","03/22/19 10:42:45","A simple template for the mouse-tracking paradigm","yes","Experiment-TF.osexp","C:\Users\Kristen\Documents\opPreviewExperiment-master\procedure","no","mono","no","24","no","black","no","yes","1050","legacy","34","15","C:/Users/Kristen/Documents/opPreviewExperiment-master/procedure/subject-10.csv","legacy","Kafkaesque Koffka","3.2.6","add","0","l","NA","NA","a","a","10960","NA","NA","51932","10960","2","2676","legacy","large","1024","2","48000","-16","experiment","9_7_add_FNI.jpg","10","even","legacy","221120","NA","116319","NA","NA","3001","NA","3018","105358","221120","224740","54951","101074","3003","mousetracking operator preview effect","0","0","0","no","false","no","1680"
"negative","undefined","1","undefined","undefined","white","no","legacy","legacy","legacy","0","relative","undefined","undefined","35","NA","0","0","0","0","0","0","0","51","51","0","15","0","no","03/22/19 10:42:45","A simple template for the mouse-tracking paradigm","yes","Experiment-TF.osexp","C:\Users\Kristen\Documents\opPreviewExperiment-master\procedure","no","mono","no","24","no","black","no","yes","1050","legacy","35","15","C:/Users/Kristen/Documents/opPreviewExperiment-master/procedure/subject-10.csv","legacy","Kafkaesque Koffka","3.2.6","add","0","a","NA","NA","a","a","10960","NA","NA","51932","10960","2","1387","legacy","large","1024","2","48000","-16","experiment","9_7_add_true.jpg","10","even","legacy","224763","NA","116319","NA","NA","3001","NA","3018","105358","224763","227244","54951","101074","3003","mousetracking operator preview effect","0","0","0","no","true","no","1680"
"negative","undefined","1","undefined","undefined","white","no","legacy","legacy","legacy","0","relative","undefined","undefined","36","NA","0","0","0","0","0","0","0","52","52","0","15","0","no","03/22/19 10:42:45","A simple template for the mouse-tracking paradigm","yes","Experiment-TF.osexp","C:\Users\Kristen\Documents\opPreviewExperiment-master\procedure","no","mono","no","24","no","black","no","yes","1050","legacy","36","15","C:/Users/Kristen/Documents/opPreviewExperiment-master/procedure/subject-10.csv","legacy","Kafkaesque Koffka","3.2.6","mult","0","a","NA","NA","a","a","10960","NA","NA","51932","10960","2","1254","legacy","large","1024","2","48000","-16","experiment","4_9_mult_true.jpg","10","even","legacy","227262","NA","116319","NA","NA","3001","NA","3018","105358","227262","229622","54951","101074","3003","mousetracking operator preview effect","0","0","0","no","true","no","1680"
"negative","undefined","1","undefined","undefined","white","no","legacy","legacy","legacy","0","relative","undefined","undefined","37","NA","0","0","0","0","0","0","0","53","53","0","15","0","no","03/22/19 10:42:45","A simple template for the mouse-tracking paradigm","yes","Experiment-TF.osexp","C:\Users\Kristen\Documents\opPreviewExperiment-master\procedure","no","mono","no","24","no","black","no","yes","1050","legacy","37","15","C:/Users/Kristen/Documents/opPreviewExperiment-master/procedure/subject-10.csv","legacy","Kafkaesque Koffka","3.2.6","add","0","l","NA","NA","a","a","10960","NA","NA","51932","10960","2","3139","legacy","small","1024","2","48000","-16","experiment","8_2_add_FNI.jpg","10","even","legacy","229646","NA","116319","NA","NA","3001","NA","3018","105358","229646","233896","54951","101074","3003","mousetracking operator preview effect","0","0","0","no","false","no","1680"
"neutral","undefined","1","undefined","undefined","white","no","legacy","legacy","legacy","0","relative","undefined","undefined","38","NA","0","0","0","0","0","0","0","54","54","0","15","0","no","03/22/19 10:42:45","A simple template for the mouse-tracking paradigm","yes","Experiment-TF.osexp","C:\Users\Kristen\Documents\opPreviewExperiment-master\procedure","no","mono","no","24","no","black","no","yes","1050","legacy","38","15","C:/Users/Kristen/Documents/opPreviewExperiment-master/procedure/subject-10.csv","legacy","Kafkaesque Koffka","3.2.6","add","0","l","NA","NA","a","a","10960","NA","NA","51932","10960","2","2795","legacy","small","1024","2","48000","-16","experiment","3_6_add_FNI.jpg","10","even","legacy","233915","NA","116319","NA","NA","3001","NA","3018","105358","233915","237655","54951","101074","3003","mousetracking operator preview effect","0","0","0","no","false","no","1680"
"neutral","undefined","1","undefined","undefined","white","no","legacy","legacy","legacy","0","relative","undefined","undefined","39","NA","0","0","0","0","0","0","0","55","55","0","15","0","no","03/22/19 10:42:45","A simple template for the mouse-tracking paradigm","yes","Experiment-TF.osexp","C:\Users\Kristen\Documents\opPreviewExperiment-master\procedure","no","mono","no","24","no","black","no","yes","1050","legacy","39","15","C:/Users/Kristen/Documents/opPreviewExperiment-master/procedure/subject-10.csv","legacy","Kafkaesque Koffka","3.2.6","add","0","l","NA","NA","a","a","10960","NA","NA","51932","10960","2","1545","legacy","small","1024","2","48000","-16","experiment","3_6_add_FI.jpg","10","even","legacy","237679","NA","116319","NA","NA","3001","NA","3018","105358","237679","240169","54951","101074","3003","mousetracking operator preview effect","0","0","0","no","false","no","1680"
"negative","undefined","1","undefined","undefined","white","no","legacy","legacy","legacy","0","relative","undefined","undefined","40","NA","0","0","0","0","0","0","0","56","56","0","15","0","no","03/22/19 10:42:45","A simple template for the mouse-tracking paradigm","yes","Experiment-TF.osexp","C:\Users\Kristen\Documents\opPreviewExperiment-master\procedure","no","mono","no","24","no","black","no","yes","1050","legacy","40","15","C:/Users/Kristen/Documents/opPreviewExperiment-master/procedure/subject-10.csv","legacy","Kafkaesque Koffka","3.2.6","mult","0","l","NA","NA","a","a","10960","NA","NA","51932","10960","2","1360","legacy","small","1024","2","48000","-16","experiment","5_3_mult_FI.jpg","10","even","legacy","240192","NA","116319","NA","NA","3001","NA","3018","105358","240192","242660","54951","101074","3003","mousetracking operator preview effect","0","0","0","no","false","no","1680"
"neutral","undefined","1","undefined","undefined","white","no","legacy","legacy","legacy","0","relative","undefined","undefined","41","NA","0","0","0","0","0","0","0","57","57","0","15","0","no","03/22/19 10:42:45","A simple template for the mouse-tracking paradigm","yes","Experiment-TF.osexp","C:\Users\Kristen\Documents\opPreviewExperiment-master\procedure","no","mono","no","24","no","black","no","yes","1050","legacy","41","15","C:/Users/Kristen/Documents/opPreviewExperiment-master/procedure/subject-10.csv","legacy","Kafkaesque Koffka","3.2.6","add","0","l","NA","NA","a","a","10960","NA","NA","51932","10960","2","1751","legacy","large","1024","2","48000","-16","experiment","9_7_add_FI.jpg","10","even","legacy","242683","NA","116319","NA","NA","3001","NA","3018","105358","242683","245374","54951","101074","3003","mousetracking operator preview effect","0","0","0","no","false","no","1680"
"neutral","undefined","1","undefined","undefined","white","no","legacy","legacy","legacy","0","relative","undefined","undefined","42","NA","0","0","0","0","0","0","0","58","58","0","15","0","no","03/22/19 10:42:45","A simple template for the mouse-tracking paradigm","yes","Experiment-TF.osexp","C:\Users\Kristen\Documents\opPreviewExperiment-master\procedure","no","mono","no","24","no","black","no","yes","1050","legacy","42","15","C:/Users/Kristen/Documents/opPreviewExperiment-master/procedure/subject-10.csv","legacy","Kafkaesque Koffka","3.2.6","mult","0","a","NA","NA","a","a","10960","NA","NA","51932","10960","2","1202","legacy","large","1024","2","48000","-16","experiment","8_4_mult_true.jpg","10","even","legacy","245399","NA","116319","NA","NA","3001","NA","3018","105358","245399","247548","54951","101074","3003","mousetracking operator preview effect","0","0","0","no","true","no","1680"
"negative","undefined","1","undefined","undefined","white","no","legacy","legacy","legacy","0","relative","undefined","undefined","43","NA","0","0","0","0","0","0","0","59","59","0","15","0","no","03/22/19 10:42:45","A simple template for the mouse-tracking paradigm","yes","Experiment-TF.osexp","C:\Users\Kristen\Documents\opPreviewExperiment-master\procedure","no","mono","no","24","no","black","no","yes","1050","legacy","43","15","C:/Users/Kristen/Documents/opPreviewExperiment-master/procedure/subject-10.csv","legacy","Kafkaesque Koffka","3.2.6","mult","0","a","NA","NA","a","a","10960","NA","NA","51932","10960","2","1043","legacy","small","1024","2","48000","-16","experiment","5_3_mult_true.jpg","10","even","legacy","247564","NA","116319","NA","NA","3001","NA","3018","105358","247564","249703","54951","101074","3003","mousetracking operator preview effect","0","0","0","no","true","no","1680"
"negative","undefined","1","undefined","undefined","white","no","legacy","legacy","legacy","0","relative","undefined","undefined","44","NA","0","0","0","0","0","0","0","60","60","0","15","0","no","03/22/19 10:42:45","A simple template for the mouse-tracking paradigm","yes","Experiment-TF.osexp","C:\Users\Kristen\Documents\opPreviewExperiment-master\procedure","no","mono","no","24","no","black","no","yes","1050","legacy","44","15","C:/Users/Kristen/Documents/opPreviewExperiment-master/procedure/subject-10.csv","legacy","Kafkaesque Koffka","3.2.6","mult","0","a","NA","NA","a","a","10960","NA","NA","51932","10960","2","1063","legacy","small","1024","2","48000","-16","experiment","5_3_mult_true.jpg","10","even","legacy","249724","NA","116319","NA","NA","3001","NA","3018","105358","249724","251887","54951","101074","3003","mousetracking operator preview effect","0","0","0","no","true","no","1680"
"negative","undefined","1","undefined","undefined","white","no","legacy","legacy","legacy","0","relative","undefined","undefined","45","NA","0","0","0","0","0","0","0","61","61","0","15","0","no","03/22/19 10:42:45","A simple template for the mouse-tracking paradigm","yes","Experiment-TF.osexp","C:\Users\Kristen\Documents\opPreviewExperiment-master\procedure","no","mono","no","24","no","black","no","yes","1050","legacy","45","15","C:/Users/Kristen/Documents/opPreviewExperiment-master/procedure/subject-10.csv","legacy","Kafkaesque Koffka","3.2.6","add","0","l","NA","NA","a","a","10960","NA","NA","51932","10960","2","1213","legacy","small","1024","2","48000","-16","experiment","5_3_add_FNI.jpg","10","even","legacy","251907","NA","116319","NA","NA","3001","NA","3018","105358","251907","254226","54951","101074","3003","mousetracking operator preview effect","0","0","0","no","false","no","1680"
"neutral","undefined","0","undefined","undefined","white","no","legacy","legacy","legacy","0","relative","undefined","undefined","46","NA","0","0","0","0","0","0","0","62","62","0","15","0","no","03/22/19 10:42:45","A simple template for the mouse-tracking paradigm","yes","Experiment-TF.osexp","C:\Users\Kristen\Documents\opPreviewExperiment-master\procedure","no","mono","no","24","no","black","no","yes","1050","legacy","46","15","C:/Users/Kristen/Documents/opPreviewExperiment-master/procedure/subject-10.csv","legacy","Kafkaesque Koffka","3.2.6","mult","0","a","NA","NA","a","a","10960","NA","NA","51932","10960","2","1408","legacy","small","1024","2","48000","-16","experiment","8_2_mult_FI.jpg","10","even","legacy","254251","NA","116319","NA","NA","3001","NA","3018","105358","254251","257615","54951","101074","3003","mousetracking operator preview effect","0","0","0","no","false","no","1680"
"neutral","undefined","0","undefined","undefined","white","no","legacy","legacy","legacy","0","relative","undefined","undefined","47","NA","0","0","0","0","0","0","0","63","63","0","15","0","no","03/22/19 10:42:45","A simple template for the mouse-tracking paradigm","yes","Experiment-TF.osexp","C:\Users\Kristen\Documents\opPreviewExperiment-master\procedure","no","mono","no","24","no","black","no","yes","1050","legacy","47","15","C:/Users/Kristen/Documents/opPreviewExperiment-master/procedure/subject-10.csv","legacy","Kafkaesque Koffka","3.2.6","mult","0","a","NA","NA","a","a","10960","NA","NA","51932","10960","2","1481","legacy","large","1024","2","48000","-16","experiment","9_7_mult_FNI.jpg","10","even","legacy","257636","NA","116319","NA","NA","3001","NA","3018","105358","257637","261079","54951","101074","3003","mousetracking operator preview effect","0","0","0","no","false","no","1680"
"neutral","undefined","1","undefined","undefined","white","no","legacy","legacy","legacy","0","relative","undefined","undefined","48","NA","0","0","0","0","0","0","0","64","64","0","15","0","no","03/22/19 10:42:45","A simple template for the mouse-tracking paradigm","yes","Experiment-TF.osexp","C:\Users\Kristen\Documents\opPreviewExperiment-master\procedure","no","mono","no","24","no","black","no","yes","1050","legacy","48","15","C:/Users/Kristen/Documents/opPreviewExperiment-master/procedure/subject-10.csv","legacy","Kafkaesque Koffka","3.2.6","add","0","l","NA","NA","a","a","10960","NA","NA","51932","10960","2","2616","legacy","small","1024","2","48000","-16","experiment","5_3_add_FNI.jpg","10","even","legacy","261101","NA","116319","NA","NA","3001","NA","3018","105358","261101","264657","54951","101074","3003","mousetracking operator preview effect","0","0","0","no","false","no","1680"
"negative","undefined","0","undefined","undefined","white","no","legacy","legacy","legacy","0","relative","undefined","undefined","49","NA","0","0","0","0","0","0","0","65","65","0","15","0","no","03/22/19 10:42:45","A simple template for the mouse-tracking paradigm","yes","Experiment-TF.osexp","C:\Users\Kristen\Documents\opPreviewExperiment-master\procedure","no","mono","no","24","no","black","no","yes","1050","legacy","49","15","C:/Users/Kristen/Documents/opPreviewExperiment-master/procedure/subject-10.csv","legacy","Kafkaesque Koffka","3.2.6","add","0","a","NA","NA","a","a","10960","NA","NA","51932","10960","2","1146","legacy","large","1024","2","48000","-16","experiment","6_8_add_FI.jpg","10","even","legacy","264679","NA","116319","NA","NA","3001","NA","3018","105358","264679","267954","54951","101074","3003","mousetracking operator preview effect","0","0","0","no","false","no","1680"
"neutral","undefined","1","undefined","undefined","white","no","legacy","legacy","legacy","0","relative","undefined","undefined","50","NA","0","0","0","0","0","0","0","66","66","0","15","0","no","03/22/19 10:42:45","A simple template for the mouse-tracking paradigm","yes","Experiment-TF.osexp","C:\Users\Kristen\Documents\opPreviewExperiment-master\procedure","no","mono","no","24","no","black","no","yes","1050","legacy","50","15","C:/Users/Kristen/Documents/opPreviewExperiment-master/procedure/subject-10.csv","legacy","Kafkaesque Koffka","3.2.6","add","0","l","NA","NA","a","a","10960","NA","NA","51932","10960","2","2261","legacy","small","1024","2","48000","-16","experiment","8_2_add_FNI.jpg","10","even","legacy","267976","NA","116319","NA","NA","3001","NA","3018","105358","267977","271176","54951","101074","3003","mousetracking operator preview effect","0","0","0","no","false","no","1680"
"negative","undefined","1","undefined","undefined","white","no","legacy","legacy","legacy","0","relative","undefined","undefined","51","NA","0","0","0","0","0","0","0","67","67","0","15","0","no","03/22/19 10:42:45","A simple template for the mouse-tracking paradigm","yes","Experiment-TF.osexp","C:\Users\Kristen\Documents\opPreviewExperiment-master\procedure","no","mono","no","24","no","black","no","yes","1050","legacy","51","15","C:/Users/Kristen/Documents/opPreviewExperiment-master/procedure/subject-10.csv","legacy","Kafkaesque Koffka","3.2.6","mult","0","a","NA","NA","a","a","10960","NA","NA","51932","10960","2","1572","legacy","small","1024","2","48000","-16","experiment","2_7_mult_true.jpg","10","even","legacy","271198","NA","116319","NA","NA","3001","NA","3018","105358","271198","273866","54951","101074","3003","mousetracking operator preview effect","0","0","0","no","true","no","1680"
"neutral","undefined","1","undefined","undefined","white","no","legacy","legacy","legacy","0","relative","undefined","undefined","52","NA","0","0","0","0","0","0","0","68","68","0","15","0","no","03/22/19 10:42:45","A simple template for the mouse-tracking paradigm","yes","Experiment-TF.osexp","C:\Users\Kristen\Documents\opPreviewExperiment-master\procedure","no","mono","no","24","no","black","no","yes","1050","legacy","52","15","C:/Users/Kristen/Documents/opPreviewExperiment-master/procedure/subject-10.csv","legacy","Kafkaesque Koffka","3.2.6","mult","0","a","NA","NA","a","a","10960","NA","NA","51932","10960","2","1451","legacy","large","1024","2","48000","-16","experiment","4_9_mult_true.jpg","10","even","legacy","273888","NA","116319","NA","NA","3001","NA","3018","105358","273888","276277","54951","101074","3003","mousetracking operator preview effect","0","0","0","no","true","no","1680"
"neutral","undefined","0","undefined","undefined","white","no","legacy","legacy","legacy","0","relative","undefined","undefined","53","NA","0","0","0","0","0","0","0","69","69","0","15","0","no","03/22/19 10:42:45","A simple template for the mouse-tracking paradigm","yes","Experiment-TF.osexp","C:\Users\Kristen\Documents\opPreviewExperiment-master\procedure","no","mono","no","24","no","black","no","yes","1050","legacy","53","15","C:/Users/Kristen/Documents/opPreviewExperiment-master/procedure/subject-10.csv","legacy","Kafkaesque Koffka","3.2.6","add","0","l","NA","NA","a","a","10960","NA","NA","51932","10960","2","805","legacy","small","1024","2","48000","-16","experiment","5_3_add_true.jpg","10","even","legacy","276299","NA","116319","NA","NA","3001","NA","3018","105358","276299","279056","54951","101074","3003","mousetracking operator preview effect","0","0","0","no","true","no","1680"
"negative","undefined","1","undefined","undefined","white","no","legacy","legacy","legacy","0","relative","undefined","undefined","54","NA","0","0","0","0","0","0","0","70","70","0","15","0","no","03/22/19 10:42:45","A simple template for the mouse-tracking paradigm","yes","Experiment-TF.osexp","C:\Users\Kristen\Documents\opPreviewExperiment-master\procedure","no","mono","no","24","no","black","no","yes","1050","legacy","54","15","C:/Users/Kristen/Documents/opPreviewExperiment-master/procedure/subject-10.csv","legacy","Kafkaesque Koffka","3.2.6","add","0","a","NA","NA","a","a","10960","NA","NA","51932","10960","2","1795","legacy","small","1024","2","48000","-16","experiment","8_2_add_true.jpg","10","even","legacy","279072","NA","116319","NA","NA","3001","NA","3018","105358","279073","281976","54951","101074","3003","mousetracking operator preview effect","0","0","0","no","true","no","1680"
"neutral","undefined","1","undefined","undefined","white","no","legacy","legacy","legacy","0","relative","undefined","undefined","55","NA","0","0","0","0","0","0","0","71","71","0","15","0","no","03/22/19 10:42:45","A simple template for the mouse-tracking paradigm","yes","Experiment-TF.osexp","C:\Users\Kristen\Documents\opPreviewExperiment-master\procedure","no","mono","no","24","no","black","no","yes","1050","legacy","55","15","C:/Users/Kristen/Documents/opPreviewExperiment-master/procedure/subject-10.csv","legacy","Kafkaesque Koffka","3.2.6","add","0","a","NA","NA","a","a","10960","NA","NA","51932","10960","2","1396","legacy","large","1024","2","48000","-16","experiment","8_4_add_true.jpg","10","even","legacy","281999","NA","116319","NA","NA","3001","NA","3018","105358","281999","284333","54951","101074","3003","mousetracking operator preview effect","0","0","0","no","true","no","1680"
"neutral","undefined","1","undefined","undefined","white","no","legacy","legacy","legacy","0","relative","undefined","undefined","56","NA","0","0","0","0","0","0","0","72","72","0","15","0","no","03/22/19 10:42:45","A simple template for the mouse-tracking paradigm","yes","Experiment-TF.osexp","C:\Users\Kristen\Documents\opPreviewExperiment-master\procedure","no","mono","no","24","no","black","no","yes","1050","legacy","56","15","C:/Users/Kristen/Documents/opPreviewExperiment-master/procedure/subject-10.csv","legacy","Kafkaesque Koffka","3.2.6","mult","0","l","NA","NA","a","a","10960","NA","NA","51932","10960","2","1219","legacy","large","1024","2","48000","-16","experiment","6_8_mult_FI.jpg","10","even","legacy","284355","NA","116319","NA","NA","3001","NA","3018","105358","284355","286520","54951","101074","3003","mousetracking operator preview effect","0","0","0","no","false","no","1680"
"negative","undefined","1","undefined","undefined","white","no","legacy","legacy","legacy","0","relative","undefined","undefined","57","NA","0","0","0","0","0","0","0","73","73","0","15","0","no","03/22/19 10:42:45","A simple template for the mouse-tracking paradigm","yes","Experiment-TF.osexp","C:\Users\Kristen\Documents\opPreviewExperiment-master\procedure","no","mono","no","24","no","black","no","yes","1050","legacy","57","15","C:/Users/Kristen/Documents/opPreviewExperiment-master/procedure/subject-10.csv","legacy","Kafkaesque Koffka","3.2.6","add","0","l","NA","NA","a","a","10960","NA","NA","51932","10960","2","2198","legacy","large","1024","2","48000","-16","experiment","9_7_add_FNI.jpg","10","even","legacy","286542","NA","116319","NA","NA","3001","NA","3018","105358","286543","289839","54951","101074","3003","mousetracking operator preview effect","0","0","0","no","false","no","1680"
"neutral","undefined","1","undefined","undefined","white","no","legacy","legacy","legacy","0","relative","undefined","undefined","58","NA","0","0","0","0","0","0","0","74","74","0","15","0","no","03/22/19 10:42:45","A simple template for the mouse-tracking paradigm","yes","Experiment-TF.osexp","C:\Users\Kristen\Documents\opPreviewExperiment-master\procedure","no","mono","no","24","no","black","no","yes","1050","legacy","58","15","C:/Users/Kristen/Documents/opPreviewExperiment-master/procedure/subject-10.csv","legacy","Kafkaesque Koffka","3.2.6","add","0","a","NA","NA","a","a","10960","NA","NA","51932","10960","2","1713","legacy","large","1024","2","48000","-16","experiment","4_9_add_true.jpg","10","even","legacy","289853","NA","116319","NA","NA","3001","NA","3018","105358","289853","292510","54951","101074","3003","mousetracking operator preview effect","0","0","0","no","true","no","1680"
"neutral","undefined","1","undefined","undefined","white","no","legacy","legacy","legacy","0","relative","undefined","undefined","59","NA","0","0","0","0","0","0","0","75","75","0","15","0","no","03/22/19 10:42:45","A simple template for the mouse-tracking paradigm","yes","Experiment-TF.osexp","C:\Users\Kristen\Documents\opPreviewExperiment-master\procedure","no","mono","no","24","no","black","no","yes","1050","legacy","59","15","C:/Users/Kristen/Documents/opPreviewExperiment-master/procedure/subject-10.csv","legacy","Kafkaesque Koffka","3.2.6","add","0","a","NA","NA","a","a","10960","NA","NA","51932","10960","2","1369","legacy","large","1024","2","48000","-16","experiment","4_9_add_true.jpg","10","even","legacy","292531","NA","116319","NA","NA","3001","NA","3018","105358","292532","294839","54951","101074","3003","mousetracking operator preview effect","0","0","0","no","true","no","1680"
"neutral","undefined","1","undefined","undefined","white","no","legacy","legacy","legacy","0","relative","undefined","undefined","60","NA","0","0","0","0","0","0","0","76","76","0","15","0","no","03/22/19 10:42:45","A simple template for the mouse-tracking paradigm","yes","Experiment-TF.osexp","C:\Users\Kristen\Documents\opPreviewExperiment-master\procedure","no","mono","no","24","no","black","no","yes","1050","legacy","60","15","C:/Users/Kristen/Documents/opPreviewExperiment-master/procedure/subject-10.csv","legacy","Kafkaesque Koffka","3.2.6","mult","0","l","NA","NA","a","a","10960","NA","NA","51932","10960","2","2411","legacy","large","1024","2","48000","-16","experiment","9_7_mult_FI.jpg","10","even","legacy","294859","NA","116319","NA","NA","3001","NA","3018","105358","294859","298209","54951","101074","3003","mousetracking operator preview effect","0","0","0","no","false","no","1680"
"negative","undefined","1","undefined","undefined","white","no","legacy","legacy","legacy","0","relative","undefined","undefined","61","NA","0","0","0","0","0","0","0","77","77","0","15","0","no","03/22/19 10:42:45","A simple template for the mouse-tracking paradigm","yes","Experiment-TF.osexp","C:\Users\Kristen\Documents\opPreviewExperiment-master\procedure","no","mono","no","24","no","black","no","yes","1050","legacy","61","15","C:/Users/Kristen/Documents/opPreviewExperiment-master/procedure/subject-10.csv","legacy","Kafkaesque Koffka","3.2.6","add","0","a","NA","NA","a","a","10960","NA","NA","51932","10960","2","2080","legacy","large","1024","2","48000","-16","experiment","9_7_add_true.jpg","10","even","legacy","298231","NA","116319","NA","NA","3001","NA","3018","105358","298231","301410","54951","101074","3003","mousetracking operator preview effect","0","0","0","no","true","no","1680"
"negative","undefined","1","undefined","undefined","white","no","legacy","legacy","legacy","0","relative","undefined","undefined","62","NA","0","0","0","0","0","0","0","78","78","0","15","0","no","03/22/19 10:42:45","A simple template for the mouse-tracking paradigm","yes","Experiment-TF.osexp","C:\Users\Kristen\Documents\opPreviewExperiment-master\procedure","no","mono","no","24","no","black","no","yes","1050","legacy","62","15","C:/Users/Kristen/Documents/opPreviewExperiment-master/procedure/subject-10.csv","legacy","Kafkaesque Koffka","3.2.6","mult","0","a","NA","NA","a","a","10960","NA","NA","51932","10960","2","1717","legacy","small","1024","2","48000","-16","experiment","2_7_mult_true.jpg","10","even","legacy","301430","NA","116319","NA","NA","3001","NA","3018","105358","301430","304244","54951","101074","3003","mousetracking operator preview effect","0","0","0","no","true","no","1680"
"negative","undefined","1","undefined","undefined","white","no","legacy","legacy","legacy","0","relative","undefined","undefined","63","NA","0","0","0","0","0","0","0","79","79","0","15","0","no","03/22/19 10:42:45","A simple template for the mouse-tracking paradigm","yes","Experiment-TF.osexp","C:\Users\Kristen\Documents\opPreviewExperiment-master\procedure","no","mono","no","24","no","black","no","yes","1050","legacy","63","15","C:/Users/Kristen/Documents/opPreviewExperiment-master/procedure/subject-10.csv","legacy","Kafkaesque Koffka","3.2.6","mult","0","a","NA","NA","a","a","10960","NA","NA","51932","10960","2","1605","legacy","large","1024","2","48000","-16","experiment","9_7_mult_true.jpg","10","even","legacy","304269","NA","116319","NA","NA","3001","NA","3018","105358","304269","306970","54951","101074","3003","mousetracking operator preview effect","0","0","0","no","true","no","1680"
"neutral","undefined","0","undefined","undefined","white","no","legacy","legacy","legacy","0","relative","undefined","undefined","64","NA","0","0","0","0","0","0","0","80","80","0","15","0","no","03/22/19 10:42:45","A simple template for the mouse-tracking paradigm","yes","Experiment-TF.osexp","C:\Users\Kristen\Documents\opPreviewExperiment-master\procedure","no","mono","no","24","no","black","no","yes","1050","legacy","64","15","C:/Users/Kristen/Documents/opPreviewExperiment-master/procedure/subject-10.csv","legacy","Kafkaesque Koffka","3.2.6","add","0","l","NA","NA","a","a","10960","NA","NA","51932","10960","2","1132","legacy","small","1024","2","48000","-16","experiment","5_3_add_true.jpg","10","even","legacy","306994","NA","116319","NA","NA","3001","NA","3018","105358","306994","310081","54951","101074","3003","mousetracking operator preview effect","0","0","0","no","true","no","1680"
"negative","undefined","1","undefined","undefined","white","no","legacy","legacy","legacy","0","relative","undefined","undefined","65","NA","0","0","0","0","0","0","0","81","81","0","15","0","no","03/22/19 10:42:45","A simple template for the mouse-tracking paradigm","yes","Experiment-TF.osexp","C:\Users\Kristen\Documents\opPreviewExperiment-master\procedure","no","mono","no","24","no","black","no","yes","1050","legacy","65","15","C:/Users/Kristen/Documents/opPreviewExperiment-master/procedure/subject-10.csv","legacy","Kafkaesque Koffka","3.2.6","mult","0","l","NA","NA","a","a","10960","NA","NA","51932","10960","2","2877","legacy","large","1024","2","48000","-16","experiment","8_4_mult_FI.jpg","10","even","legacy","310104","NA","116319","NA","NA","3001","NA","3018","105358","310104","314085","54951","101074","3003","mousetracking operator preview effect","0","0","0","no","false","no","1680"
"neutral","undefined","1","undefined","undefined","white","no","legacy","legacy","legacy","0","relative","undefined","undefined","66","NA","0","0","0","0","0","0","0","82","82","0","15","0","no","03/22/19 10:42:45","A simple template for the mouse-tracking paradigm","yes","Experiment-TF.osexp","C:\Users\Kristen\Documents\opPreviewExperiment-master\procedure","no","mono","no","24","no","black","no","yes","1050","legacy","66","15","C:/Users/Kristen/Documents/opPreviewExperiment-master/procedure/subject-10.csv","legacy","Kafkaesque Koffka","3.2.6","add","0","a","NA","NA","a","a","10960","NA","NA","51932","10960","2","1088","legacy","small","1024","2","48000","-16","experiment","8_2_add_true.jpg","10","even","legacy","314106","NA","116319","NA","NA","3001","NA","3018","105358","314106","316131","54951","101074","3003","mousetracking operator preview effect","0","0","0","no","true","no","1680"
"neutral","undefined","1","undefined","undefined","white","no","legacy","legacy","legacy","0","relative","undefined","undefined","67","NA","0","0","0","0","0","0","0","83","83","0","15","0","no","03/22/19 10:42:45","A simple template for the mouse-tracking paradigm","yes","Experiment-TF.osexp","C:\Users\Kristen\Documents\opPreviewExperiment-master\procedure","no","mono","no","24","no","black","no","yes","1050","legacy","67","15","C:/Users/Kristen/Documents/opPreviewExperiment-master/procedure/subject-10.csv","legacy","Kafkaesque Koffka","3.2.6","mult","0","l","NA","NA","a","a","10960","NA","NA","51932","10960","2","2382","legacy","large","1024","2","48000","-16","experiment","8_4_mult_FNI.jpg","10","even","legacy","316152","NA","116319","NA","NA","3001","NA","3018","105358","316152","319468","54951","101074","3003","mousetracking operator preview effect","0","0","0","no","false","no","1680"
"neutral","undefined","1","undefined","undefined","white","no","legacy","legacy","legacy","0","relative","undefined","undefined","68","NA","0","0","0","0","0","0","0","84","84","0","15","0","no","03/22/19 10:42:45","A simple template for the mouse-tracking paradigm","yes","Experiment-TF.osexp","C:\Users\Kristen\Documents\opPreviewExperiment-master\procedure","no","mono","no","24","no","black","no","yes","1050","legacy","68","15","C:/Users/Kristen/Documents/opPreviewExperiment-master/procedure/subject-10.csv","legacy","Kafkaesque Koffka","3.2.6","mult","0","a","NA","NA","a","a","10960","NA","NA","51932","10960","2","1047","legacy","large","1024","2","48000","-16","experiment","8_4_mult_true.jpg","10","even","legacy","319488","NA","116319","NA","NA","3001","NA","3018","105358","319488","321472","54951","101074","3003","mousetracking operator preview effect","0","0","0","no","true","no","1680"
"negative","undefined","1","undefined","undefined","white","no","legacy","legacy","legacy","0","relative","undefined","undefined","69","NA","0","0","0","0","0","0","0","85","85","0","15","0","no","03/22/19 10:42:45","A simple template for the mouse-tracking paradigm","yes","Experiment-TF.osexp","C:\Users\Kristen\Documents\opPreviewExperiment-master\procedure","no","mono","no","24","no","black","no","yes","1050","legacy","69","15","C:/Users/Kristen/Documents/opPreviewExperiment-master/procedure/subject-10.csv","legacy","Kafkaesque Koffka","3.2.6","mult","0","a","NA","NA","a","a","10960","NA","NA","51932","10960","2","1266","legacy","large","1024","2","48000","-16","experiment","6_8_mult_true.jpg","10","even","legacy","321494","NA","116319","NA","NA","3001","NA","3018","105358","321494","323869","54951","101074","3003","mousetracking operator preview effect","0","0","0","no","true","no","1680"
"neutral","undefined","1","undefined","undefined","white","no","legacy","legacy","legacy","0","relative","undefined","undefined","70","NA","0","0","0","0","0","0","0","86","86","0","15","0","no","03/22/19 10:42:45","A simple template for the mouse-tracking paradigm","yes","Experiment-TF.osexp","C:\Users\Kristen\Documents\opPreviewExperiment-master\procedure","no","mono","no","24","no","black","no","yes","1050","legacy","70","15","C:/Users/Kristen/Documents/opPreviewExperiment-master/procedure/subject-10.csv","legacy","Kafkaesque Koffka","3.2.6","mult","0","a","NA","NA","a","a","10960","NA","NA","51932","10960","2","1331","legacy","small","1024","2","48000","-16","experiment","2_7_mult_true.jpg","10","even","legacy","323890","NA","116319","NA","NA","3001","NA","3018","105358","323890","326163","54951","101074","3003","mousetracking operator preview effect","0","0","0","no","true","no","1680"
"neutral","undefined","0","undefined","undefined","white","no","legacy","legacy","legacy","0","relative","undefined","undefined","71","NA","0","0","0","0","0","0","0","87","87","0","15","0","no","03/22/19 10:42:45","A simple template for the mouse-tracking paradigm","yes","Experiment-TF.osexp","C:\Users\Kristen\Documents\opPreviewExperiment-master\procedure","no","mono","no","24","no","black","no","yes","1050","legacy","71","15","C:/Users/Kristen/Documents/opPreviewExperiment-master/procedure/subject-10.csv","legacy","Kafkaesque Koffka","3.2.6","add","0","a","NA","NA","a","a","10960","NA","NA","51932","10960","2","2326","legacy","large","1024","2","48000","-16","experiment","8_4_add_FNI.jpg","10","even","legacy","326184","NA","116319","NA","NA","3001","NA","3018","105358","326184","330470","54951","101074","3003","mousetracking operator preview effect","0","0","0","no","false","no","1680"
"negative","undefined","1","undefined","undefined","white","no","legacy","legacy","legacy","0","relative","undefined","undefined","72","NA","0","0","0","0","0","0","0","88","88","0","15","0","no","03/22/19 10:42:45","A simple template for the mouse-tracking paradigm","yes","Experiment-TF.osexp","C:\Users\Kristen\Documents\opPreviewExperiment-master\procedure","no","mono","no","24","no","black","no","yes","1050","legacy","72","15","C:/Users/Kristen/Documents/opPreviewExperiment-master/procedure/subject-10.csv","legacy","Kafkaesque Koffka","3.2.6","add","0","a","NA","NA","a","a","10960","NA","NA","51932","10960","2","1441","legacy","small","1024","2","48000","-16","experiment","3_6_add_true.jpg","10","even","legacy","330492","NA","116319","NA","NA","3001","NA","3018","105358","330493","333029","54951","101074","3003","mousetracking operator preview effect","0","0","0","no","true","no","1680"
"negative","undefined","1","undefined","undefined","white","no","legacy","legacy","legacy","0","relative","undefined","undefined","73","NA","0","0","0","0","0","0","0","89","89","0","15","0","no","03/22/19 10:42:45","A simple template for the mouse-tracking paradigm","yes","Experiment-TF.osexp","C:\Users\Kristen\Documents\opPreviewExperiment-master\procedure","no","mono","no","24","no","black","no","yes","1050","legacy","73","15","C:/Users/Kristen/Documents/opPreviewExperiment-master/procedure/subject-10.csv","legacy","Kafkaesque Koffka","3.2.6","mult","0","a","NA","NA","a","a","10960","NA","NA","51932","10960","2","1394","legacy","small","1024","2","48000","-16","experiment","3_6_mult_true.jpg","10","even","legacy","333052","NA","116319","NA","NA","3001","NA","3018","105358","333052","335537","54951","101074","3003","mousetracking operator preview effect","0","0","0","no","true","no","1680"
"negative","undefined","1","undefined","undefined","white","no","legacy","legacy","legacy","0","relative","undefined","undefined","74","NA","0","0","0","0","0","0","0","90","90","0","15","0","no","03/22/19 10:42:45","A simple template for the mouse-tracking paradigm","yes","Experiment-TF.osexp","C:\Users\Kristen\Documents\opPreviewExperiment-master\procedure","no","mono","no","24","no","black","no","yes","1050","legacy","74","15","C:/Users/Kristen/Documents/opPreviewExperiment-master/procedure/subject-10.csv","legacy","Kafkaesque Koffka","3.2.6","mult","0","l","NA","NA","a","a","10960","NA","NA","51932","10960","2","1082","legacy","small","1024","2","48000","-16","experiment","3_6_mult_FNI.jpg","10","even","legacy","335559","NA","116319","NA","NA","3001","NA","3018","105358","335559","337747","54951","101074","3003","mousetracking operator preview effect","0","0","0","no","false","no","1680"
"neutral","undefined","1","undefined","undefined","white","no","legacy","legacy","legacy","0","relative","undefined","undefined","75","NA","0","0","0","0","0","0","0","91","91","0","15","0","no","03/22/19 10:42:45","A simple template for the mouse-tracking paradigm","yes","Experiment-TF.osexp","C:\Users\Kristen\Documents\opPreviewExperiment-master\procedure","no","mono","no","24","no","black","no","yes","1050","legacy","75","15","C:/Users/Kristen/Documents/opPreviewExperiment-master/procedure/subject-10.csv","legacy","Kafkaesque Koffka","3.2.6","mult","0","l","NA","NA","a","a","10960","NA","NA","51932","10960","2","1511","legacy","small","1024","2","48000","-16","experiment","5_3_mult_FI.jpg","10","even","legacy","337769","NA","116319","NA","NA","3001","NA","3018","105358","337769","340215","54951","101074","3003","mousetracking operator preview effect","0","0","0","no","false","no","1680"
"neutral","undefined","1","undefined","undefined","white","no","legacy","legacy","legacy","0","relative","undefined","undefined","76","NA","0","0","0","0","0","0","0","92","92","0","15","0","no","03/22/19 10:42:45","A simple template for the mouse-tracking paradigm","yes","Experiment-TF.osexp","C:\Users\Kristen\Documents\opPreviewExperiment-master\procedure","no","mono","no","24","no","black","no","yes","1050","legacy","76","15","C:/Users/Kristen/Documents/opPreviewExperiment-master/procedure/subject-10.csv","legacy","Kafkaesque Koffka","3.2.6","mult","0","l","NA","NA","a","a","10960","NA","NA","51932","10960","2","1339","legacy","large","1024","2","48000","-16","experiment","6_8_mult_FNI.jpg","10","even","legacy","340237","NA","116319","NA","NA","3001","NA","3018","105358","340237","342522","54951","101074","3003","mousetracking operator preview effect","0","0","0","no","false","no","1680"
"negative","undefined","1","undefined","undefined","white","no","legacy","legacy","legacy","0","relative","undefined","undefined","77","NA","0","0","0","0","0","0","0","93","93","0","15","0","no","03/22/19 10:42:45","A simple template for the mouse-tracking paradigm","yes","Experiment-TF.osexp","C:\Users\Kristen\Documents\opPreviewExperiment-master\procedure","no","mono","no","24","no","black","no","yes","1050","legacy","77","15","C:/Users/Kristen/Documents/opPreviewExperiment-master/procedure/subject-10.csv","legacy","Kafkaesque Koffka","3.2.6","mult","0","a","NA","NA","a","a","10960","NA","NA","51932","10960","2","1513","legacy","small","1024","2","48000","-16","experiment","3_6_mult_true.jpg","10","even","legacy","342546","NA","116319","NA","NA","3001","NA","3018","105358","342546","345152","54951","101074","3003","mousetracking operator preview effect","0","0","0","no","true","no","1680"
"neutral","undefined","1","undefined","undefined","white","no","legacy","legacy","legacy","0","relative","undefined","undefined","78","NA","0","0","0","0","0","0","0","94","94","0","15","0","no","03/22/19 10:42:45","A simple template for the mouse-tracking paradigm","yes","Experiment-TF.osexp","C:\Users\Kristen\Documents\opPreviewExperiment-master\procedure","no","mono","no","24","no","black","no","yes","1050","legacy","78","15","C:/Users/Kristen/Documents/opPreviewExperiment-master/procedure/subject-10.csv","legacy","Kafkaesque Koffka","3.2.6","add","0","l","NA","NA","a","a","10960","NA","NA","51932","10960","2","1804","legacy","small","1024","2","48000","-16","experiment","8_2_add_FI.jpg","10","even","legacy","345174","NA","116319","NA","NA","3001","NA","3018","105358","345174","347912","54951","101074","3003","mousetracking operator preview effect","0","0","0","no","false","no","1680"
"neutral","undefined","1","undefined","undefined","white","no","legacy","legacy","legacy","0","relative","undefined","undefined","79","NA","0","0","0","0","0","0","0","95","95","0","15","0","no","03/22/19 10:42:45","A simple template for the mouse-tracking paradigm","yes","Experiment-TF.osexp","C:\Users\Kristen\Documents\opPreviewExperiment-master\procedure","no","mono","no","24","no","black","no","yes","1050","legacy","79","15","C:/Users/Kristen/Documents/opPreviewExperiment-master/procedure/subject-10.csv","legacy","Kafkaesque Koffka","3.2.6","mult","0","a","NA","NA","a","a","10960","NA","NA","51932","10960","2","1201","legacy","large","1024","2","48000","-16","experiment","6_8_mult_true.jpg","10","even","legacy","347932","NA","116319","NA","NA","3001","NA","3018","105358","347932","350073","54951","101074","3003","mousetracking operator preview effect","0","0","0","no","true","no","1680"
"neutral","undefined","1","undefined","undefined","white","no","legacy","legacy","legacy","0","relative","undefined","undefined","80","NA","0","0","0","0","0","0","0","96","96","0","15","0","no","03/22/19 10:42:45","A simple template for the mouse-tracking paradigm","yes","Experiment-TF.osexp","C:\Users\Kristen\Documents\opPreviewExperiment-master\procedure","no","mono","no","24","no","black","no","yes","1050","legacy","80","15","C:/Users/Kristen/Documents/opPreviewExperiment-master/procedure/subject-10.csv","legacy","Kafkaesque Koffka","3.2.6","mult","0","l","NA","NA","a","a","10960","NA","NA","51932","10960","2","1351","legacy","small","1024","2","48000","-16","experiment","2_7_mult_FNI.jpg","10","even","legacy","350094","NA","116319","NA","NA","3001","NA","3018","105358","350094","352388","54951","101074","3003","mousetracking operator preview effect","0","0","0","no","false","no","1680"
"negative","undefined","1","undefined","undefined","white","no","legacy","legacy","legacy","0","relative","undefined","undefined","81","NA","0","0","0","0","0","0","0","97","97","0","15","0","no","03/22/19 10:42:45","A simple template for the mouse-tracking paradigm","yes","Experiment-TF.osexp","C:\Users\Kristen\Documents\opPreviewExperiment-master\procedure","no","mono","no","24","no","black","no","yes","1050","legacy","81","15","C:/Users/Kristen/Documents/opPreviewExperiment-master/procedure/subject-10.csv","legacy","Kafkaesque Koffka","3.2.6","mult","0","a","NA","NA","a","a","10960","NA","NA","51932","10960","2","957","legacy","large","1024","2","48000","-16","experiment","8_4_mult_true.jpg","10","even","legacy","352409","NA","116319","NA","NA","3001","NA","3018","105358","352409","354462","54951","101074","3003","mousetracking operator preview effect","0","0","0","no","true","no","1680"
"negative","undefined","0","undefined","undefined","white","no","legacy","legacy","legacy","0","relative","undefined","undefined","82","NA","0","0","0","0","0","0","0","98","98","0","15","0","no","03/22/19 10:42:45","A simple template for the mouse-tracking paradigm","yes","Experiment-TF.osexp","C:\Users\Kristen\Documents\opPreviewExperiment-master\procedure","no","mono","no","24","no","black","no","yes","1050","legacy","82","15","C:/Users/Kristen/Documents/opPreviewExperiment-master/procedure/subject-10.csv","legacy","Kafkaesque Koffka","3.2.6","add","0","a","NA","NA","a","a","10960","NA","NA","51932","10960","2","1791","legacy","small","1024","2","48000","-16","experiment","3_6_add_FNI.jpg","10","even","legacy","354484","NA","116319","NA","NA","3001","NA","3018","105358","354484","358391","54951","101074","3003","mousetracking operator preview effect","0","0","0","no","false","no","1680"
"neutral","undefined","1","undefined","undefined","white","no","legacy","legacy","legacy","0","relative","undefined","undefined","83","NA","0","0","0","0","0","0","0","99","99","0","15","0","no","03/22/19 10:42:45","A simple template for the mouse-tracking paradigm","yes","Experiment-TF.osexp","C:\Users\Kristen\Documents\opPreviewExperiment-master\procedure","no","mono","no","24","no","black","no","yes","1050","legacy","83","15","C:/Users/Kristen/Documents/opPreviewExperiment-master/procedure/subject-10.csv","legacy","Kafkaesque Koffka","3.2.6","add","0","a","NA","NA","a","a","10960","NA","NA","51932","10960","2","2703","legacy","large","1024","2","48000","-16","experiment","6_8_add_true.jpg","10","even","legacy","358412","NA","116319","NA","NA","3001","NA","3018","105358","358412","362055","54951","101074","3003","mousetracking operator preview effect","0","0","0","no","true","no","1680"
"negative","undefined","1","undefined","undefined","white","no","legacy","legacy","legacy","0","relative","undefined","undefined","84","NA","0","0","0","0","0","0","0","100","100","0","15","0","no","03/22/19 10:42:45","A simple template for the mouse-tracking paradigm","yes","Experiment-TF.osexp","C:\Users\Kristen\Documents\opPreviewExperiment-master\procedure","no","mono","no","24","no","black","no","yes","1050","legacy","84","15","C:/Users/Kristen/Documents/opPreviewExperiment-master/procedure/subject-10.csv","legacy","Kafkaesque Koffka","3.2.6","add","0","a","NA","NA","a","a","10960","NA","NA","51932","10960","2","898","legacy","small","1024","2","48000","-16","experiment","8_2_add_true.jpg","10","even","legacy","362078","NA","116319","NA","NA","3001","NA","3018","105358","362078","364076","54951","101074","3003","mousetracking operator preview effect","0","0","0","no","true","no","1680"
"neutral","undefined","0","undefined","undefined","white","no","legacy","legacy","legacy","0","relative","undefined","undefined","85","NA","0","0","0","0","0","0","0","101","101","0","15","0","no","03/22/19 10:42:45","A simple template for the mouse-tracking paradigm","yes","Experiment-TF.osexp","C:\Users\Kristen\Documents\opPreviewExperiment-master\procedure","no","mono","no","24","no","black","no","yes","1050","legacy","85","15","C:/Users/Kristen/Documents/opPreviewExperiment-master/procedure/subject-10.csv","legacy","Kafkaesque Koffka","3.2.6","add","0","a","NA","NA","a","a","10960","NA","NA","51932","10960","2","1375","legacy","large","1024","2","48000","-16","experiment","6_8_add_FNI.jpg","10","even","legacy","364100","NA","116319","NA","NA","3001","NA","3018","105358","364100","367437","54951","101074","3003","mousetracking operator preview effect","0","0","0","no","false","no","1680"
"negative","undefined","1","undefined","undefined","white","no","legacy","legacy","legacy","0","relative","undefined","undefined","86","NA","0","0","0","0","0","0","0","102","102","0","15","0","no","03/22/19 10:42:45","A simple template for the mouse-tracking paradigm","yes","Experiment-TF.osexp","C:\Users\Kristen\Documents\opPreviewExperiment-master\procedure","no","mono","no","24","no","black","no","yes","1050","legacy","86","15","C:/Users/Kristen/Documents/opPreviewExperiment-master/procedure/subject-10.csv","legacy","Kafkaesque Koffka","3.2.6","add","0","l","NA","NA","a","a","10960","NA","NA","51932","10960","2","2259","legacy","small","1024","2","48000","-16","experiment","5_3_add_FI.jpg","10","even","legacy","367456","NA","116319","NA","NA","3001","NA","3018","105358","367456","370814","54951","101074","3003","mousetracking operator preview effect","0","0","0","no","false","no","1680"
"negative","undefined","0","undefined","undefined","white","no","legacy","legacy","legacy","0","relative","undefined","undefined","87","NA","0","0","0","0","0","0","0","103","103","0","15","0","no","03/22/19 10:42:45","A simple template for the mouse-tracking paradigm","yes","Experiment-TF.osexp","C:\Users\Kristen\Documents\opPreviewExperiment-master\procedure","no","mono","no","24","no","black","no","yes","1050","legacy","87","15","C:/Users/Kristen/Documents/opPreviewExperiment-master/procedure/subject-10.csv","legacy","Kafkaesque Koffka","3.2.6","add","0","a","NA","NA","a","a","10960","NA","NA","51932","10960","2","2019","legacy","large","1024","2","48000","-16","experiment","8_4_add_FNI.jpg","10","even","legacy","370841","NA","116319","NA","NA","3001","NA","3018","105358","370841","374976","54951","101074","3003","mousetracking operator preview effect","0","0","0","no","false","no","1680"
"neutral","undefined","1","undefined","undefined","white","no","legacy","legacy","legacy","0","relative","undefined","undefined","88","NA","0","0","0","0","0","0","0","104","104","0","15","0","no","03/22/19 10:42:45","A simple template for the mouse-tracking paradigm","yes","Experiment-TF.osexp","C:\Users\Kristen\Documents\opPreviewExperiment-master\procedure","no","mono","no","24","no","black","no","yes","1050","legacy","88","15","C:/Users/Kristen/Documents/opPreviewExperiment-master/procedure/subject-10.csv","legacy","Kafkaesque Koffka","3.2.6","mult","0","a","NA","NA","a","a","10960","NA","NA","51932","10960","2","1594","legacy","small","1024","2","48000","-16","experiment","8_2_mult_true.jpg","10","even","legacy","374997","NA","116319","NA","NA","3001","NA","3018","105358","374998","377529","54951","101074","3003","mousetracking operator preview effect","0","0","0","no","true","no","1680"
"negative","undefined","1","undefined","undefined","white","no","legacy","legacy","legacy","0","relative","undefined","undefined","89","NA","0","0","0","0","0","0","0","105","105","0","15","0","no","03/22/19 10:42:45","A simple template for the mouse-tracking paradigm","yes","Experiment-TF.osexp","C:\Users\Kristen\Documents\opPreviewExperiment-master\procedure","no","mono","no","24","no","black","no","yes","1050","legacy","89","15","C:/Users/Kristen/Documents/opPreviewExperiment-master/procedure/subject-10.csv","legacy","Kafkaesque Koffka","3.2.6","add","0","a","NA","NA","a","a","10960","NA","NA","51932","10960","2","2115","legacy","large","1024","2","48000","-16","experiment","4_9_add_true.jpg","10","even","legacy","377544","NA","116319","NA","NA","3001","NA","3018","105358","377544","380760","54951","101074","3003","mousetracking operator preview effect","0","0","0","no","true","no","1680"
"negative","undefined","1","undefined","undefined","white","no","legacy","legacy","legacy","0","relative","undefined","undefined","90","NA","0","0","0","0","0","0","0","106","106","0","15","0","no","03/22/19 10:42:45","A simple template for the mouse-tracking paradigm","yes","Experiment-TF.osexp","C:\Users\Kristen\Documents\opPreviewExperiment-master\procedure","no","mono","no","24","no","black","no","yes","1050","legacy","90","15","C:/Users/Kristen/Documents/opPreviewExperiment-master/procedure/subject-10.csv","legacy","Kafkaesque Koffka","3.2.6","add","0","a","NA","NA","a","a","10960","NA","NA","51932","10960","2","1807","legacy","large","1024","2","48000","-16","experiment","8_4_add_true.jpg","10","even","legacy","380783","NA","116319","NA","NA","3001","NA","3018","105358","380783","383687","54951","101074","3003","mousetracking operator preview effect","0","0","0","no","true","no","1680"
"neutral","undefined","1","undefined","undefined","white","no","legacy","legacy","legacy","0","relative","undefined","undefined","91","NA","0","0","0","0","0","0","0","107","107","0","15","0","no","03/22/19 10:42:45","A simple template for the mouse-tracking paradigm","yes","Experiment-TF.osexp","C:\Users\Kristen\Documents\opPreviewExperiment-master\procedure","no","mono","no","24","no","black","no","yes","1050","legacy","91","15","C:/Users/Kristen/Documents/opPreviewExperiment-master/procedure/subject-10.csv","legacy","Kafkaesque Koffka","3.2.6","add","0","a","NA","NA","a","a","10960","NA","NA","51932","10960","2","1422","legacy","small","1024","2","48000","-16","experiment","3_6_add_true.jpg","10","even","legacy","383710","NA","116319","NA","NA","3001","NA","3018","105358","383710","386073","54951","101074","3003","mousetracking operator preview effect","0","0","0","no","true","no","1680"
"neutral","undefined","1","undefined","undefined","white","no","legacy","legacy","legacy","0","relative","undefined","undefined","92","NA","0","0","0","0","0","0","0","108","108","0","15","0","no","03/22/19 10:42:45","A simple template for the mouse-tracking paradigm","yes","Experiment-TF.osexp","C:\Users\Kristen\Documents\opPreviewExperiment-master\procedure","no","mono","no","24","no","black","no","yes","1050","legacy","92","15","C:/Users/Kristen/Documents/opPreviewExperiment-master/procedure/subject-10.csv","legacy","Kafkaesque Koffka","3.2.6","mult","0","l","NA","NA","a","a","10960","NA","NA","51932","10960","2","1781","legacy","small","1024","2","48000","-16","experiment","3_6_mult_FNI.jpg","10","even","legacy","386096","NA","116319","NA","NA","3001","NA","3018","105358","386096","388811","54951","101074","3003","mousetracking operator preview effect","0","0","0","no","false","no","1680"
