"SOAcondition","acc","accuracy","average_response_time","avg_rt","background","bidi","canvas_backend","clock_backend","color_backend","compensation","coordinates","correct","correct_instruction1","count_block1_sequence","count_block2_sequence","count_block_1","count_block_2","count_breakScreen","count_experiment","count_finish","count_instruction1","count_instruction2","count_keyboard_script","count_logger","count_practiceBlock","count_practice_sequence","count_setup_script","custom_cursor","datetime","description","disable_garbage_collection","experiment_file","experiment_path","font_bold","font_family","font_italic","font_size","font_underline","foreground","form_clicks","fullscreen","height","keyboard_backend","live_row","live_row_practiceBlock","logfile","mouse_backend","opensesame_codename","opensesame_version","operation","repeat_cycle","response","response_breakScreen","response_finish","response_instruction1","response_instruction2","response_time","response_time_breakScreen","response_time_finish","response_time_instruction1","response_time_instruction2","round_decimals","rt","sampler_backend","size","sound_buf_size","sound_channels","sound_freq","sound_sample_size","start","stimulus","subject_nr","subject_parity","synth_backend","time_block1_sequence","time_block2_sequence","time_block_1","time_block_2","time_breakScreen","time_experiment","time_finish","time_instruction1","time_instruction2","time_keyboard_script","time_logger","time_practiceBlock","time_practice_sequence","time_setup_script","title","total_correct","total_response_time","total_responses","transparent_variables","truth","uniform_coordinates","width"
"neutral","undefined","1","undefined","undefined","white","no","legacy","legacy","legacy","0","relative","undefined","undefined","NA","NA","0","0","0","0","0","0","0","0","0","0","0","0","no","04/24/19 11:07:03","A simple template for the mouse-tracking paradigm","yes","Experiment-TF.osexp","C:\Users\Kristen\Documents\opPreviewExperiment-master\procedure","no","mono","no","24","no","black","no","yes","1050","legacy","0","0","C:/Users/Kristen/Documents/opPreviewExperiment-master/procedure/subject-19.csv","legacy","Kafkaesque Koffka","3.2.6","add","0","a","NA","NA","a","NA","20951","NA","NA","20951","NA","2","1801","legacy","NA","1024","2","48000","-16","experiment","0_3_add_T.jpg","19","odd","legacy","NA","NA","NA","NA","NA","2148","NA","2163","NA","23118","25868","23115","23117","2149","mousetracking operator preview effect","0","0","0","no","true","no","1680"
"neutral","undefined","1","undefined","undefined","white","no","legacy","legacy","legacy","0","relative","undefined","undefined","NA","NA","0","0","0","0","0","0","0","1","1","0","1","0","no","04/24/19 11:07:03","A simple template for the mouse-tracking paradigm","yes","Experiment-TF.osexp","C:\Users\Kristen\Documents\opPreviewExperiment-master\procedure","no","mono","no","24","no","black","no","yes","1050","legacy","1","1","C:/Users/Kristen/Documents/opPreviewExperiment-master/procedure/subject-19.csv","legacy","Kafkaesque Koffka","3.2.6","add","0","a","NA","NA","a","NA","20951","NA","NA","20951","NA","2","1133","legacy","NA","1024","2","48000","-16","experiment","1_4_add_T.jpg","19","odd","legacy","NA","NA","NA","NA","NA","2148","NA","2163","NA","25896","27962","23115","25896","2149","mousetracking operator preview effect","0","0","0","no","true","no","1680"
"neutral","undefined","1","undefined","undefined","white","no","legacy","legacy","legacy","0","relative","undefined","undefined","NA","NA","0","0","0","0","0","0","0","2","2","0","2","0","no","04/24/19 11:07:03","A simple template for the mouse-tracking paradigm","yes","Experiment-TF.osexp","C:\Users\Kristen\Documents\opPreviewExperiment-master\procedure","no","mono","no","24","no","black","no","yes","1050","legacy","2","2","C:/Users/Kristen/Documents/opPreviewExperiment-master/procedure/subject-19.csv","legacy","Kafkaesque Koffka","3.2.6","mult","0","l","NA","NA","a","NA","20951","NA","NA","20951","NA","2","1450","legacy","NA","1024","2","48000","-16","experiment","0_3_mult_F.jpg","19","odd","legacy","NA","NA","NA","NA","NA","2148","NA","2163","NA","27986","30368","23115","27986","2149","mousetracking operator preview effect","0","0","0","no","false","no","1680"
"neutral","undefined","1","undefined","undefined","white","no","legacy","legacy","legacy","0","relative","undefined","undefined","NA","NA","0","0","0","0","0","0","0","3","3","0","3","0","no","04/24/19 11:07:03","A simple template for the mouse-tracking paradigm","yes","Experiment-TF.osexp","C:\Users\Kristen\Documents\opPreviewExperiment-master\procedure","no","mono","no","24","no","black","no","yes","1050","legacy","3","3","C:/Users/Kristen/Documents/opPreviewExperiment-master/procedure/subject-19.csv","legacy","Kafkaesque Koffka","3.2.6","add","0","l","NA","NA","a","NA","20951","NA","NA","20951","NA","2","1949","legacy","NA","1024","2","48000","-16","experiment","1_4_add_F.jpg","19","odd","legacy","NA","NA","NA","NA","NA","2148","NA","2163","NA","30389","33270","23115","30389","2149","mousetracking operator preview effect","0","0","0","no","false","no","1680"
"negative","undefined","1","undefined","undefined","white","no","legacy","legacy","legacy","0","relative","undefined","undefined","NA","NA","0","0","0","0","0","0","0","4","4","0","4","0","no","04/24/19 11:07:03","A simple template for the mouse-tracking paradigm","yes","Experiment-TF.osexp","C:\Users\Kristen\Documents\opPreviewExperiment-master\procedure","no","mono","no","24","no","black","no","yes","1050","legacy","4","4","C:/Users/Kristen/Documents/opPreviewExperiment-master/procedure/subject-19.csv","legacy","Kafkaesque Koffka","3.2.6","mult","0","a","NA","NA","a","NA","20951","NA","NA","20951","NA","2","1171","legacy","NA","1024","2","48000","-16","experiment","1_4_mult_T.jpg","19","odd","legacy","NA","NA","NA","NA","NA","2148","NA","2163","NA","33291","35554","23115","33291","2149","mousetracking operator preview effect","0","0","0","no","true","no","1680"
"negative","undefined","1","undefined","undefined","white","no","legacy","legacy","legacy","0","relative","undefined","undefined","NA","NA","0","0","0","0","0","0","0","5","5","0","5","0","no","04/24/19 11:07:03","A simple template for the mouse-tracking paradigm","yes","Experiment-TF.osexp","C:\Users\Kristen\Documents\opPreviewExperiment-master\procedure","no","mono","no","24","no","black","no","yes","1050","legacy","5","5","C:/Users/Kristen/Documents/opPreviewExperiment-master/procedure/subject-19.csv","legacy","Kafkaesque Koffka","3.2.6","add","0","a","NA","NA","a","NA","20951","NA","NA","20951","NA","2","1204","legacy","NA","1024","2","48000","-16","experiment","0_3_add_T.jpg","19","odd","legacy","NA","NA","NA","NA","NA","2148","NA","2163","NA","35575","37871","23115","35575","2149","mousetracking operator preview effect","0","0","0","no","true","no","1680"
"negative","undefined","1","undefined","undefined","white","no","legacy","legacy","legacy","0","relative","undefined","undefined","NA","NA","0","0","0","0","0","0","0","6","6","0","6","0","no","04/24/19 11:07:03","A simple template for the mouse-tracking paradigm","yes","Experiment-TF.osexp","C:\Users\Kristen\Documents\opPreviewExperiment-master\procedure","no","mono","no","24","no","black","no","yes","1050","legacy","6","6","C:/Users/Kristen/Documents/opPreviewExperiment-master/procedure/subject-19.csv","legacy","Kafkaesque Koffka","3.2.6","mult","0","a","NA","NA","a","NA","20951","NA","NA","20951","NA","2","1099","legacy","NA","1024","2","48000","-16","experiment","0_3_mult_T.jpg","19","odd","legacy","NA","NA","NA","NA","NA","2148","NA","2163","NA","37893","40085","23115","37893","2149","mousetracking operator preview effect","0","0","0","no","true","no","1680"
"neutral","undefined","1","undefined","undefined","white","no","legacy","legacy","legacy","0","relative","undefined","undefined","NA","NA","0","0","0","0","0","0","0","7","7","0","7","0","no","04/24/19 11:07:03","A simple template for the mouse-tracking paradigm","yes","Experiment-TF.osexp","C:\Users\Kristen\Documents\opPreviewExperiment-master\procedure","no","mono","no","24","no","black","no","yes","1050","legacy","7","7","C:/Users/Kristen/Documents/opPreviewExperiment-master/procedure/subject-19.csv","legacy","Kafkaesque Koffka","3.2.6","add","0","l","NA","NA","a","NA","20951","NA","NA","20951","NA","2","1282","legacy","NA","1024","2","48000","-16","experiment","0_3_add_F.jpg","19","odd","legacy","NA","NA","NA","NA","NA","2148","NA","2163","NA","40105","42319","23115","40105","2149","mousetracking operator preview effect","0","0","0","no","false","no","1680"
"neutral","undefined","1","undefined","undefined","white","no","legacy","legacy","legacy","0","relative","undefined","undefined","NA","NA","0","0","0","0","0","0","0","8","8","0","8","0","no","04/24/19 11:07:03","A simple template for the mouse-tracking paradigm","yes","Experiment-TF.osexp","C:\Users\Kristen\Documents\opPreviewExperiment-master\procedure","no","mono","no","24","no","black","no","yes","1050","legacy","8","8","C:/Users/Kristen/Documents/opPreviewExperiment-master/procedure/subject-19.csv","legacy","Kafkaesque Koffka","3.2.6","mult","0","a","NA","NA","a","NA","20951","NA","NA","20951","NA","2","980","legacy","NA","1024","2","48000","-16","experiment","1_4_mult_T.jpg","19","odd","legacy","NA","NA","NA","NA","NA","2148","NA","2163","NA","42346","44303","23115","42346","2149","mousetracking operator preview effect","0","0","0","no","true","no","1680"
"neutral","undefined","1","undefined","undefined","white","no","legacy","legacy","legacy","0","relative","undefined","undefined","NA","NA","0","0","0","0","0","0","0","9","9","0","9","0","no","04/24/19 11:07:03","A simple template for the mouse-tracking paradigm","yes","Experiment-TF.osexp","C:\Users\Kristen\Documents\opPreviewExperiment-master\procedure","no","mono","no","24","no","black","no","yes","1050","legacy","9","9","C:/Users/Kristen/Documents/opPreviewExperiment-master/procedure/subject-19.csv","legacy","Kafkaesque Koffka","3.2.6","mult","0","a","NA","NA","a","NA","20951","NA","NA","20951","NA","2","834","legacy","NA","1024","2","48000","-16","experiment","0_3_mult_T.jpg","19","odd","legacy","NA","NA","NA","NA","NA","2148","NA","2163","NA","44330","46143","23115","44330","2149","mousetracking operator preview effect","0","0","0","no","true","no","1680"
"negative","undefined","1","undefined","undefined","white","no","legacy","legacy","legacy","0","relative","undefined","undefined","NA","NA","0","0","0","0","0","0","0","10","10","0","10","0","no","04/24/19 11:07:03","A simple template for the mouse-tracking paradigm","yes","Experiment-TF.osexp","C:\Users\Kristen\Documents\opPreviewExperiment-master\procedure","no","mono","no","24","no","black","no","yes","1050","legacy","10","10","C:/Users/Kristen/Documents/opPreviewExperiment-master/procedure/subject-19.csv","legacy","Kafkaesque Koffka","3.2.6","add","0","l","NA","NA","a","NA","20951","NA","NA","20951","NA","2","1660","legacy","NA","1024","2","48000","-16","experiment","1_4_add_F.jpg","19","odd","legacy","NA","NA","NA","NA","NA","2148","NA","2163","NA","46163","48963","23115","46163","2149","mousetracking operator preview effect","0","0","0","no","false","no","1680"
"negative","undefined","0","undefined","undefined","white","no","legacy","legacy","legacy","0","relative","undefined","undefined","NA","NA","0","0","0","0","0","0","0","11","11","0","11","0","no","04/24/19 11:07:03","A simple template for the mouse-tracking paradigm","yes","Experiment-TF.osexp","C:\Users\Kristen\Documents\opPreviewExperiment-master\procedure","no","mono","no","24","no","black","no","yes","1050","legacy","11","11","C:/Users/Kristen/Documents/opPreviewExperiment-master/procedure/subject-19.csv","legacy","Kafkaesque Koffka","3.2.6","add","0","a","NA","NA","a","NA","20951","NA","NA","20951","NA","2","1292","legacy","NA","1024","2","48000","-16","experiment","0_3_add_F.jpg","19","odd","legacy","NA","NA","NA","NA","NA","2148","NA","2163","NA","48986","52454","23115","48986","2149","mousetracking operator preview effect","0","0","0","no","false","no","1680"
"negative","undefined","1","undefined","undefined","white","no","legacy","legacy","legacy","0","relative","undefined","undefined","NA","NA","0","0","0","0","0","0","0","12","12","0","12","0","no","04/24/19 11:07:03","A simple template for the mouse-tracking paradigm","yes","Experiment-TF.osexp","C:\Users\Kristen\Documents\opPreviewExperiment-master\procedure","no","mono","no","24","no","black","no","yes","1050","legacy","12","12","C:/Users/Kristen/Documents/opPreviewExperiment-master/procedure/subject-19.csv","legacy","Kafkaesque Koffka","3.2.6","mult","0","l","NA","NA","a","NA","20951","NA","NA","20951","NA","2","1764","legacy","NA","1024","2","48000","-16","experiment","0_3_mult_F.jpg","19","odd","legacy","NA","NA","NA","NA","NA","2148","NA","2163","NA","52492","55424","23115","52491","2149","mousetracking operator preview effect","0","0","0","no","false","no","1680"
"negative","undefined","1","undefined","undefined","white","no","legacy","legacy","legacy","0","relative","undefined","undefined","NA","NA","0","0","0","0","0","0","0","13","13","0","13","0","no","04/24/19 11:07:03","A simple template for the mouse-tracking paradigm","yes","Experiment-TF.osexp","C:\Users\Kristen\Documents\opPreviewExperiment-master\procedure","no","mono","no","24","no","black","no","yes","1050","legacy","13","13","C:/Users/Kristen/Documents/opPreviewExperiment-master/procedure/subject-19.csv","legacy","Kafkaesque Koffka","3.2.6","add","0","a","NA","NA","a","NA","20951","NA","NA","20951","NA","2","1219","legacy","NA","1024","2","48000","-16","experiment","1_4_add_T.jpg","19","odd","legacy","NA","NA","NA","NA","NA","2148","NA","2163","NA","55454","57829","23115","55454","2149","mousetracking operator preview effect","0","0","0","no","true","no","1680"
"negative","undefined","1","undefined","undefined","white","no","legacy","legacy","legacy","0","relative","undefined","undefined","NA","NA","0","0","0","0","0","0","0","14","14","0","14","0","no","04/24/19 11:07:03","A simple template for the mouse-tracking paradigm","yes","Experiment-TF.osexp","C:\Users\Kristen\Documents\opPreviewExperiment-master\procedure","no","mono","no","24","no","black","no","yes","1050","legacy","14","14","C:/Users/Kristen/Documents/opPreviewExperiment-master/procedure/subject-19.csv","legacy","Kafkaesque Koffka","3.2.6","mult","0","l","NA","NA","a","NA","20951","NA","NA","20951","NA","2","1271","legacy","NA","1024","2","48000","-16","experiment","1_4_mult_F.jpg","19","odd","legacy","NA","NA","NA","NA","NA","2148","NA","2163","NA","57859","60284","23115","57859","2149","mousetracking operator preview effect","0","0","0","no","false","no","1680"
"neutral","undefined","1","undefined","undefined","white","no","legacy","legacy","legacy","0","relative","undefined","undefined","NA","NA","0","0","0","0","0","0","0","15","15","0","15","0","no","04/24/19 11:07:03","A simple template for the mouse-tracking paradigm","yes","Experiment-TF.osexp","C:\Users\Kristen\Documents\opPreviewExperiment-master\procedure","no","mono","no","24","no","black","no","yes","1050","legacy","15","15","C:/Users/Kristen/Documents/opPreviewExperiment-master/procedure/subject-19.csv","legacy","Kafkaesque Koffka","3.2.6","mult","0","l","NA","NA","a","NA","20951","NA","NA","20951","NA","2","1346","legacy","NA","1024","2","48000","-16","experiment","1_4_mult_F.jpg","19","odd","legacy","NA","NA","NA","NA","NA","2148","NA","2163","NA","60315","62635","23115","60315","2149","mousetracking operator preview effect","0","0","0","no","false","no","1680"
"negative","undefined","1","undefined","undefined","white","no","legacy","legacy","legacy","0","relative","undefined","undefined","0","NA","0","0","0","0","0","0","0","16","16","0","15","0","no","04/24/19 11:07:03","A simple template for the mouse-tracking paradigm","yes","Experiment-TF.osexp","C:\Users\Kristen\Documents\opPreviewExperiment-master\procedure","no","mono","no","24","no","black","no","yes","1050","legacy","0","15","C:/Users/Kristen/Documents/opPreviewExperiment-master/procedure/subject-19.csv","legacy","Kafkaesque Koffka","3.2.6","add","0","a","NA","NA","a","a","18963","NA","NA","20951","18963","2","1135","legacy","small","1024","2","48000","-16","experiment","8_2_add_true.jpg","19","odd","legacy","81635","NA","81631","NA","NA","2148","NA","2163","62667","81635","83920","23115","60315","2149","mousetracking operator preview effect","0","0","0","no","true","no","1680"
"negative","undefined","1","undefined","undefined","white","no","legacy","legacy","legacy","0","relative","undefined","undefined","1","NA","0","0","0","0","0","0","0","17","17","0","15","0","no","04/24/19 11:07:03","A simple template for the mouse-tracking paradigm","yes","Experiment-TF.osexp","C:\Users\Kristen\Documents\opPreviewExperiment-master\procedure","no","mono","no","24","no","black","no","yes","1050","legacy","1","15","C:/Users/Kristen/Documents/opPreviewExperiment-master/procedure/subject-19.csv","legacy","Kafkaesque Koffka","3.2.6","add","0","a","NA","NA","a","a","18963","NA","NA","20951","18963","2","2248","legacy","large","1024","2","48000","-16","experiment","4_9_add_true.jpg","19","odd","legacy","83942","NA","81631","NA","NA","2148","NA","2163","62667","83942","87338","23115","60315","2149","mousetracking operator preview effect","0","0","0","no","true","no","1680"
"negative","undefined","1","undefined","undefined","white","no","legacy","legacy","legacy","0","relative","undefined","undefined","2","NA","0","0","0","0","0","0","0","18","18","0","15","0","no","04/24/19 11:07:03","A simple template for the mouse-tracking paradigm","yes","Experiment-TF.osexp","C:\Users\Kristen\Documents\opPreviewExperiment-master\procedure","no","mono","no","24","no","black","no","yes","1050","legacy","2","15","C:/Users/Kristen/Documents/opPreviewExperiment-master/procedure/subject-19.csv","legacy","Kafkaesque Koffka","3.2.6","add","0","l","NA","NA","a","a","18963","NA","NA","20951","18963","2","1307","legacy","small","1024","2","48000","-16","experiment","8_2_add_FNI.jpg","19","odd","legacy","87358","NA","81631","NA","NA","2148","NA","2163","62667","87358","89814","23115","60315","2149","mousetracking operator preview effect","0","0","0","no","false","no","1680"
"neutral","undefined","0","undefined","undefined","white","no","legacy","legacy","legacy","0","relative","undefined","undefined","3","NA","0","0","0","0","0","0","0","19","19","0","15","0","no","04/24/19 11:07:03","A simple template for the mouse-tracking paradigm","yes","Experiment-TF.osexp","C:\Users\Kristen\Documents\opPreviewExperiment-master\procedure","no","mono","no","24","no","black","no","yes","1050","legacy","3","15","C:/Users/Kristen/Documents/opPreviewExperiment-master/procedure/subject-19.csv","legacy","Kafkaesque Koffka","3.2.6","add","0","a","NA","NA","a","a","18963","NA","NA","20951","18963","2","2291","legacy","large","1024","2","48000","-16","experiment","6_8_add_FNI.jpg","19","odd","legacy","89843","NA","81631","NA","NA","2148","NA","2163","62667","89843","94135","23115","60315","2149","mousetracking operator preview effect","0","0","0","no","false","no","1680"
"neutral","undefined","1","undefined","undefined","white","no","legacy","legacy","legacy","0","relative","undefined","undefined","4","NA","0","0","0","0","0","0","0","20","20","0","15","0","no","04/24/19 11:07:03","A simple template for the mouse-tracking paradigm","yes","Experiment-TF.osexp","C:\Users\Kristen\Documents\opPreviewExperiment-master\procedure","no","mono","no","24","no","black","no","yes","1050","legacy","4","15","C:/Users/Kristen/Documents/opPreviewExperiment-master/procedure/subject-19.csv","legacy","Kafkaesque Koffka","3.2.6","add","0","a","NA","NA","a","a","18963","NA","NA","20951","18963","2","1895","legacy","large","1024","2","48000","-16","experiment","9_7_add_true.jpg","19","odd","legacy","94171","NA","81631","NA","NA","2148","NA","2163","62667","94172","97036","23115","60315","2149","mousetracking operator preview effect","0","0","0","no","true","no","1680"
"neutral","undefined","1","undefined","undefined","white","no","legacy","legacy","legacy","0","relative","undefined","undefined","5","NA","0","0","0","0","0","0","0","21","21","0","15","0","no","04/24/19 11:07:03","A simple template for the mouse-tracking paradigm","yes","Experiment-TF.osexp","C:\Users\Kristen\Documents\opPreviewExperiment-master\procedure","no","mono","no","24","no","black","no","yes","1050","legacy","5","15","C:/Users/Kristen/Documents/opPreviewExperiment-master/procedure/subject-19.csv","legacy","Kafkaesque Koffka","3.2.6","add","0","l","NA","NA","a","a","18963","NA","NA","20951","18963","2","1385","legacy","small","1024","2","48000","-16","experiment","3_6_add_FI.jpg","19","odd","legacy","97056","NA","81631","NA","NA","2148","NA","2163","62667","97056","99412","23115","60315","2149","mousetracking operator preview effect","0","0","0","no","false","no","1680"
"negative","undefined","1","undefined","undefined","white","no","legacy","legacy","legacy","0","relative","undefined","undefined","6","NA","0","0","0","0","0","0","0","22","22","0","15","0","no","04/24/19 11:07:03","A simple template for the mouse-tracking paradigm","yes","Experiment-TF.osexp","C:\Users\Kristen\Documents\opPreviewExperiment-master\procedure","no","mono","no","24","no","black","no","yes","1050","legacy","6","15","C:/Users/Kristen/Documents/opPreviewExperiment-master/procedure/subject-19.csv","legacy","Kafkaesque Koffka","3.2.6","add","0","a","NA","NA","a","a","18963","NA","NA","20951","18963","2","1079","legacy","large","1024","2","48000","-16","experiment","8_4_add_true.jpg","19","odd","legacy","99433","NA","81631","NA","NA","2148","NA","2163","62667","99433","101663","23115","60315","2149","mousetracking operator preview effect","0","0","0","no","true","no","1680"
"neutral","undefined","1","undefined","undefined","white","no","legacy","legacy","legacy","0","relative","undefined","undefined","7","NA","0","0","0","0","0","0","0","23","23","0","15","0","no","04/24/19 11:07:03","A simple template for the mouse-tracking paradigm","yes","Experiment-TF.osexp","C:\Users\Kristen\Documents\opPreviewExperiment-master\procedure","no","mono","no","24","no","black","no","yes","1050","legacy","7","15","C:/Users/Kristen/Documents/opPreviewExperiment-master/procedure/subject-19.csv","legacy","Kafkaesque Koffka","3.2.6","add","0","a","NA","NA","a","a","18963","NA","NA","20951","18963","2","1022","legacy","small","1024","2","48000","-16","experiment","3_6_add_true.jpg","19","odd","legacy","101684","NA","81631","NA","NA","2148","NA","2163","62667","101684","103681","23115","60315","2149","mousetracking operator preview effect","0","0","0","no","true","no","1680"
"negative","undefined","1","undefined","undefined","white","no","legacy","legacy","legacy","0","relative","undefined","undefined","8","NA","0","0","0","0","0","0","0","24","24","0","15","0","no","04/24/19 11:07:03","A simple template for the mouse-tracking paradigm","yes","Experiment-TF.osexp","C:\Users\Kristen\Documents\opPreviewExperiment-master\procedure","no","mono","no","24","no","black","no","yes","1050","legacy","8","15","C:/Users/Kristen/Documents/opPreviewExperiment-master/procedure/subject-19.csv","legacy","Kafkaesque Koffka","3.2.6","mult","0","l","NA","NA","a","a","18963","NA","NA","20951","18963","2","1788","legacy","large","1024","2","48000","-16","experiment","4_9_mult_FNI.jpg","19","odd","legacy","103714","NA","81631","NA","NA","2148","NA","2163","62667","103714","106656","23115","60315","2149","mousetracking operator preview effect","0","0","0","no","false","no","1680"
"neutral","undefined","1","undefined","undefined","white","no","legacy","legacy","legacy","0","relative","undefined","undefined","9","NA","0","0","0","0","0","0","0","25","25","0","15","0","no","04/24/19 11:07:03","A simple template for the mouse-tracking paradigm","yes","Experiment-TF.osexp","C:\Users\Kristen\Documents\opPreviewExperiment-master\procedure","no","mono","no","24","no","black","no","yes","1050","legacy","9","15","C:/Users/Kristen/Documents/opPreviewExperiment-master/procedure/subject-19.csv","legacy","Kafkaesque Koffka","3.2.6","mult","0","l","NA","NA","a","a","18963","NA","NA","20951","18963","2","1735","legacy","small","1024","2","48000","-16","experiment","3_6_mult_FI.jpg","19","odd","legacy","106686","NA","81631","NA","NA","2148","NA","2163","62667","106686","109389","23115","60315","2149","mousetracking operator preview effect","0","0","0","no","false","no","1680"
"negative","undefined","1","undefined","undefined","white","no","legacy","legacy","legacy","0","relative","undefined","undefined","10","NA","0","0","0","0","0","0","0","26","26","0","15","0","no","04/24/19 11:07:03","A simple template for the mouse-tracking paradigm","yes","Experiment-TF.osexp","C:\Users\Kristen\Documents\opPreviewExperiment-master\procedure","no","mono","no","24","no","black","no","yes","1050","legacy","10","15","C:/Users/Kristen/Documents/opPreviewExperiment-master/procedure/subject-19.csv","legacy","Kafkaesque Koffka","3.2.6","add","0","a","NA","NA","a","a","18963","NA","NA","20951","18963","2","1010","legacy","small","1024","2","48000","-16","experiment","2_7_add_true.jpg","19","odd","legacy","109416","NA","81631","NA","NA","2148","NA","2163","62667","109416","111550","23115","60315","2149","mousetracking operator preview effect","0","0","0","no","true","no","1680"
"neutral","undefined","1","undefined","undefined","white","no","legacy","legacy","legacy","0","relative","undefined","undefined","11","NA","0","0","0","0","0","0","0","27","27","0","15","0","no","04/24/19 11:07:03","A simple template for the mouse-tracking paradigm","yes","Experiment-TF.osexp","C:\Users\Kristen\Documents\opPreviewExperiment-master\procedure","no","mono","no","24","no","black","no","yes","1050","legacy","11","15","C:/Users/Kristen/Documents/opPreviewExperiment-master/procedure/subject-19.csv","legacy","Kafkaesque Koffka","3.2.6","mult","0","l","NA","NA","a","a","18963","NA","NA","20951","18963","2","1485","legacy","large","1024","2","48000","-16","experiment","6_8_mult_FI.jpg","19","odd","legacy","111573","NA","81631","NA","NA","2148","NA","2163","62667","111573","114034","23115","60315","2149","mousetracking operator preview effect","0","0","0","no","false","no","1680"
"negative","undefined","1","undefined","undefined","white","no","legacy","legacy","legacy","0","relative","undefined","undefined","12","NA","0","0","0","0","0","0","0","28","28","0","15","0","no","04/24/19 11:07:03","A simple template for the mouse-tracking paradigm","yes","Experiment-TF.osexp","C:\Users\Kristen\Documents\opPreviewExperiment-master\procedure","no","mono","no","24","no","black","no","yes","1050","legacy","12","15","C:/Users/Kristen/Documents/opPreviewExperiment-master/procedure/subject-19.csv","legacy","Kafkaesque Koffka","3.2.6","add","0","a","NA","NA","a","a","18963","NA","NA","20951","18963","2","1043","legacy","small","1024","2","48000","-16","experiment","2_7_add_true.jpg","19","odd","legacy","114054","NA","81631","NA","NA","2148","NA","2163","62667","114054","116244","23115","60315","2149","mousetracking operator preview effect","0","0","0","no","true","no","1680"
"negative","undefined","1","undefined","undefined","white","no","legacy","legacy","legacy","0","relative","undefined","undefined","13","NA","0","0","0","0","0","0","0","29","29","0","15","0","no","04/24/19 11:07:03","A simple template for the mouse-tracking paradigm","yes","Experiment-TF.osexp","C:\Users\Kristen\Documents\opPreviewExperiment-master\procedure","no","mono","no","24","no","black","no","yes","1050","legacy","13","15","C:/Users/Kristen/Documents/opPreviewExperiment-master/procedure/subject-19.csv","legacy","Kafkaesque Koffka","3.2.6","add","0","l","NA","NA","a","a","18963","NA","NA","20951","18963","2","1164","legacy","small","1024","2","48000","-16","experiment","2_7_add_FNI.jpg","19","odd","legacy","116265","NA","81631","NA","NA","2148","NA","2163","62667","116265","118583","23115","60315","2149","mousetracking operator preview effect","0","0","0","no","false","no","1680"
"negative","undefined","1","undefined","undefined","white","no","legacy","legacy","legacy","0","relative","undefined","undefined","14","NA","0","0","0","0","0","0","0","30","30","0","15","0","no","04/24/19 11:07:03","A simple template for the mouse-tracking paradigm","yes","Experiment-TF.osexp","C:\Users\Kristen\Documents\opPreviewExperiment-master\procedure","no","mono","no","24","no","black","no","yes","1050","legacy","14","15","C:/Users/Kristen/Documents/opPreviewExperiment-master/procedure/subject-19.csv","legacy","Kafkaesque Koffka","3.2.6","add","0","l","NA","NA","a","a","18963","NA","NA","20951","18963","2","1359","legacy","small","1024","2","48000","-16","experiment","3_6_add_FNI.jpg","19","odd","legacy","118605","NA","81631","NA","NA","2148","NA","2163","62667","118605","121110","23115","60315","2149","mousetracking operator preview effect","0","0","0","no","false","no","1680"
"negative","undefined","1","undefined","undefined","white","no","legacy","legacy","legacy","0","relative","undefined","undefined","15","NA","0","0","0","0","0","0","0","31","31","0","15","0","no","04/24/19 11:07:03","A simple template for the mouse-tracking paradigm","yes","Experiment-TF.osexp","C:\Users\Kristen\Documents\opPreviewExperiment-master\procedure","no","mono","no","24","no","black","no","yes","1050","legacy","15","15","C:/Users/Kristen/Documents/opPreviewExperiment-master/procedure/subject-19.csv","legacy","Kafkaesque Koffka","3.2.6","mult","0","l","NA","NA","a","a","18963","NA","NA","20951","18963","2","1251","legacy","small","1024","2","48000","-16","experiment","5_3_mult_FI.jpg","19","odd","legacy","121130","NA","81631","NA","NA","2148","NA","2163","62667","121130","123529","23115","60315","2149","mousetracking operator preview effect","0","0","0","no","false","no","1680"
"negative","undefined","1","undefined","undefined","white","no","legacy","legacy","legacy","0","relative","undefined","undefined","16","NA","0","0","0","0","0","0","0","32","32","0","15","0","no","04/24/19 11:07:03","A simple template for the mouse-tracking paradigm","yes","Experiment-TF.osexp","C:\Users\Kristen\Documents\opPreviewExperiment-master\procedure","no","mono","no","24","no","black","no","yes","1050","legacy","16","15","C:/Users/Kristen/Documents/opPreviewExperiment-master/procedure/subject-19.csv","legacy","Kafkaesque Koffka","3.2.6","add","0","a","NA","NA","a","a","18963","NA","NA","20951","18963","2","817","legacy","small","1024","2","48000","-16","experiment","5_3_add_true.jpg","19","odd","legacy","123559","NA","81631","NA","NA","2148","NA","2163","62667","123559","125520","23115","60315","2149","mousetracking operator preview effect","0","0","0","no","true","no","1680"
"negative","undefined","1","undefined","undefined","white","no","legacy","legacy","legacy","0","relative","undefined","undefined","17","NA","0","0","0","0","0","0","0","33","33","0","15","0","no","04/24/19 11:07:03","A simple template for the mouse-tracking paradigm","yes","Experiment-TF.osexp","C:\Users\Kristen\Documents\opPreviewExperiment-master\procedure","no","mono","no","24","no","black","no","yes","1050","legacy","17","15","C:/Users/Kristen/Documents/opPreviewExperiment-master/procedure/subject-19.csv","legacy","Kafkaesque Koffka","3.2.6","add","0","a","NA","NA","a","a","18963","NA","NA","20951","18963","2","868","legacy","small","1024","2","48000","-16","experiment","5_3_add_true.jpg","19","odd","legacy","125541","NA","81631","NA","NA","2148","NA","2163","62667","125541","127562","23115","60315","2149","mousetracking operator preview effect","0","0","0","no","true","no","1680"
"negative","undefined","1","undefined","undefined","white","no","legacy","legacy","legacy","0","relative","undefined","undefined","18","NA","0","0","0","0","0","0","0","34","34","0","15","0","no","04/24/19 11:07:03","A simple template for the mouse-tracking paradigm","yes","Experiment-TF.osexp","C:\Users\Kristen\Documents\opPreviewExperiment-master\procedure","no","mono","no","24","no","black","no","yes","1050","legacy","18","15","C:/Users/Kristen/Documents/opPreviewExperiment-master/procedure/subject-19.csv","legacy","Kafkaesque Koffka","3.2.6","mult","0","a","NA","NA","a","a","18963","NA","NA","20951","18963","2","1208","legacy","large","1024","2","48000","-16","experiment","4_9_mult_true.jpg","19","odd","legacy","127591","NA","81631","NA","NA","2148","NA","2163","62667","127591","129953","23115","60315","2149","mousetracking operator preview effect","0","0","0","no","true","no","1680"
"negative","undefined","1","undefined","undefined","white","no","legacy","legacy","legacy","0","relative","undefined","undefined","19","NA","0","0","0","0","0","0","0","35","35","0","15","0","no","04/24/19 11:07:03","A simple template for the mouse-tracking paradigm","yes","Experiment-TF.osexp","C:\Users\Kristen\Documents\opPreviewExperiment-master\procedure","no","mono","no","24","no","black","no","yes","1050","legacy","19","15","C:/Users/Kristen/Documents/opPreviewExperiment-master/procedure/subject-19.csv","legacy","Kafkaesque Koffka","3.2.6","mult","0","l","NA","NA","a","a","18963","NA","NA","20951","18963","2","1180","legacy","large","1024","2","48000","-16","experiment","8_4_mult_FNI.jpg","19","odd","legacy","129983","NA","81631","NA","NA","2148","NA","2163","62667","129983","132309","23115","60315","2149","mousetracking operator preview effect","0","0","0","no","false","no","1680"
"neutral","undefined","1","undefined","undefined","white","no","legacy","legacy","legacy","0","relative","undefined","undefined","20","NA","0","0","0","0","0","0","0","36","36","0","15","0","no","04/24/19 11:07:03","A simple template for the mouse-tracking paradigm","yes","Experiment-TF.osexp","C:\Users\Kristen\Documents\opPreviewExperiment-master\procedure","no","mono","no","24","no","black","no","yes","1050","legacy","20","15","C:/Users/Kristen/Documents/opPreviewExperiment-master/procedure/subject-19.csv","legacy","Kafkaesque Koffka","3.2.6","mult","0","l","NA","NA","a","a","18963","NA","NA","20951","18963","2","867","legacy","large","1024","2","48000","-16","experiment","8_4_mult_FNI.jpg","19","odd","legacy","132338","NA","81631","NA","NA","2148","NA","2163","62667","132338","134182","23115","60315","2149","mousetracking operator preview effect","0","0","0","no","false","no","1680"
"negative","undefined","1","undefined","undefined","white","no","legacy","legacy","legacy","0","relative","undefined","undefined","21","NA","0","0","0","0","0","0","0","37","37","0","15","0","no","04/24/19 11:07:03","A simple template for the mouse-tracking paradigm","yes","Experiment-TF.osexp","C:\Users\Kristen\Documents\opPreviewExperiment-master\procedure","no","mono","no","24","no","black","no","yes","1050","legacy","21","15","C:/Users/Kristen/Documents/opPreviewExperiment-master/procedure/subject-19.csv","legacy","Kafkaesque Koffka","3.2.6","mult","0","a","NA","NA","a","a","18963","NA","NA","20951","18963","2","964","legacy","large","1024","2","48000","-16","experiment","4_9_mult_true.jpg","19","odd","legacy","134196","NA","81631","NA","NA","2148","NA","2163","62667","134196","136311","23115","60315","2149","mousetracking operator preview effect","0","0","0","no","true","no","1680"
"negative","undefined","1","undefined","undefined","white","no","legacy","legacy","legacy","0","relative","undefined","undefined","22","NA","0","0","0","0","0","0","0","38","38","0","15","0","no","04/24/19 11:07:03","A simple template for the mouse-tracking paradigm","yes","Experiment-TF.osexp","C:\Users\Kristen\Documents\opPreviewExperiment-master\procedure","no","mono","no","24","no","black","no","yes","1050","legacy","22","15","C:/Users/Kristen/Documents/opPreviewExperiment-master/procedure/subject-19.csv","legacy","Kafkaesque Koffka","3.2.6","mult","0","a","NA","NA","a","a","18963","NA","NA","20951","18963","2","1097","legacy","large","1024","2","48000","-16","experiment","8_4_mult_true.jpg","19","odd","legacy","136340","NA","81631","NA","NA","2148","NA","2163","62667","136340","138587","23115","60315","2149","mousetracking operator preview effect","0","0","0","no","true","no","1680"
"neutral","undefined","1","undefined","undefined","white","no","legacy","legacy","legacy","0","relative","undefined","undefined","23","NA","0","0","0","0","0","0","0","39","39","0","15","0","no","04/24/19 11:07:03","A simple template for the mouse-tracking paradigm","yes","Experiment-TF.osexp","C:\Users\Kristen\Documents\opPreviewExperiment-master\procedure","no","mono","no","24","no","black","no","yes","1050","legacy","23","15","C:/Users/Kristen/Documents/opPreviewExperiment-master/procedure/subject-19.csv","legacy","Kafkaesque Koffka","3.2.6","mult","0","a","NA","NA","a","a","18963","NA","NA","20951","18963","2","733","legacy","large","1024","2","48000","-16","experiment","8_4_mult_true.jpg","19","odd","legacy","138616","NA","81631","NA","NA","2148","NA","2163","62667","138616","140326","23115","60315","2149","mousetracking operator preview effect","0","0","0","no","true","no","1680"
"negative","undefined","1","undefined","undefined","white","no","legacy","legacy","legacy","0","relative","undefined","undefined","24","NA","0","0","0","0","0","0","0","40","40","0","15","0","no","04/24/19 11:07:03","A simple template for the mouse-tracking paradigm","yes","Experiment-TF.osexp","C:\Users\Kristen\Documents\opPreviewExperiment-master\procedure","no","mono","no","24","no","black","no","yes","1050","legacy","24","15","C:/Users/Kristen/Documents/opPreviewExperiment-master/procedure/subject-19.csv","legacy","Kafkaesque Koffka","3.2.6","add","0","l","NA","NA","a","a","18963","NA","NA","20951","18963","2","1143","legacy","large","1024","2","48000","-16","experiment","8_4_add_FI.jpg","19","odd","legacy","140351","NA","81631","NA","NA","2148","NA","2163","62667","140351","142619","23115","60315","2149","mousetracking operator preview effect","0","0","0","no","false","no","1680"
"neutral","undefined","1","undefined","undefined","white","no","legacy","legacy","legacy","0","relative","undefined","undefined","25","NA","0","0","0","0","0","0","0","41","41","0","15","0","no","04/24/19 11:07:03","A simple template for the mouse-tracking paradigm","yes","Experiment-TF.osexp","C:\Users\Kristen\Documents\opPreviewExperiment-master\procedure","no","mono","no","24","no","black","no","yes","1050","legacy","25","15","C:/Users/Kristen/Documents/opPreviewExperiment-master/procedure/subject-19.csv","legacy","Kafkaesque Koffka","3.2.6","mult","0","l","NA","NA","a","a","18963","NA","NA","20951","18963","2","1098","legacy","large","1024","2","48000","-16","experiment","4_9_mult_FNI.jpg","19","odd","legacy","142643","NA","81631","NA","NA","2148","NA","2163","62667","142643","144718","23115","60315","2149","mousetracking operator preview effect","0","0","0","no","false","no","1680"
"negative","undefined","1","undefined","undefined","white","no","legacy","legacy","legacy","0","relative","undefined","undefined","26","NA","0","0","0","0","0","0","0","42","42","0","15","0","no","04/24/19 11:07:03","A simple template for the mouse-tracking paradigm","yes","Experiment-TF.osexp","C:\Users\Kristen\Documents\opPreviewExperiment-master\procedure","no","mono","no","24","no","black","no","yes","1050","legacy","26","15","C:/Users/Kristen/Documents/opPreviewExperiment-master/procedure/subject-19.csv","legacy","Kafkaesque Koffka","3.2.6","add","0","l","NA","NA","a","a","18963","NA","NA","20951","18963","2","1292","legacy","small","1024","2","48000","-16","experiment","3_6_add_FI.jpg","19","odd","legacy","144739","NA","81631","NA","NA","2148","NA","2163","62667","144739","147186","23115","60315","2149","mousetracking operator preview effect","0","0","0","no","false","no","1680"
"neutral","undefined","1","undefined","undefined","white","no","legacy","legacy","legacy","0","relative","undefined","undefined","27","NA","0","0","0","0","0","0","0","43","43","0","15","0","no","04/24/19 11:07:03","A simple template for the mouse-tracking paradigm","yes","Experiment-TF.osexp","C:\Users\Kristen\Documents\opPreviewExperiment-master\procedure","no","mono","no","24","no","black","no","yes","1050","legacy","27","15","C:/Users/Kristen/Documents/opPreviewExperiment-master/procedure/subject-19.csv","legacy","Kafkaesque Koffka","3.2.6","mult","0","l","NA","NA","a","a","18963","NA","NA","20951","18963","2","2150","legacy","large","1024","2","48000","-16","experiment","9_7_mult_FNI.jpg","19","odd","legacy","147216","NA","81631","NA","NA","2148","NA","2163","62667","147216","150348","23115","60315","2149","mousetracking operator preview effect","0","0","0","no","false","no","1680"
"negative","undefined","1","undefined","undefined","white","no","legacy","legacy","legacy","0","relative","undefined","undefined","28","NA","0","0","0","0","0","0","0","44","44","0","15","0","no","04/24/19 11:07:03","A simple template for the mouse-tracking paradigm","yes","Experiment-TF.osexp","C:\Users\Kristen\Documents\opPreviewExperiment-master\procedure","no","mono","no","24","no","black","no","yes","1050","legacy","28","15","C:/Users/Kristen/Documents/opPreviewExperiment-master/procedure/subject-19.csv","legacy","Kafkaesque Koffka","3.2.6","add","0","l","NA","NA","a","a","18963","NA","NA","20951","18963","2","980","legacy","large","1024","2","48000","-16","experiment","6_8_add_FI.jpg","19","odd","legacy","150375","NA","81631","NA","NA","2148","NA","2163","62667","150376","152493","23115","60315","2149","mousetracking operator preview effect","0","0","0","no","false","no","1680"
"negative","undefined","1","undefined","undefined","white","no","legacy","legacy","legacy","0","relative","undefined","undefined","29","NA","0","0","0","0","0","0","0","45","45","0","15","0","no","04/24/19 11:07:03","A simple template for the mouse-tracking paradigm","yes","Experiment-TF.osexp","C:\Users\Kristen\Documents\opPreviewExperiment-master\procedure","no","mono","no","24","no","black","no","yes","1050","legacy","29","15","C:/Users/Kristen/Documents/opPreviewExperiment-master/procedure/subject-19.csv","legacy","Kafkaesque Koffka","3.2.6","mult","0","l","NA","NA","a","a","18963","NA","NA","20951","18963","2","997","legacy","small","1024","2","48000","-16","experiment","2_7_mult_FI.jpg","19","odd","legacy","152522","NA","81631","NA","NA","2148","NA","2163","62667","152523","154676","23115","60315","2149","mousetracking operator preview effect","0","0","0","no","false","no","1680"
"negative","undefined","1","undefined","undefined","white","no","legacy","legacy","legacy","0","relative","undefined","undefined","30","NA","0","0","0","0","0","0","0","46","46","0","15","0","no","04/24/19 11:07:03","A simple template for the mouse-tracking paradigm","yes","Experiment-TF.osexp","C:\Users\Kristen\Documents\opPreviewExperiment-master\procedure","no","mono","no","24","no","black","no","yes","1050","legacy","30","15","C:/Users/Kristen/Documents/opPreviewExperiment-master/procedure/subject-19.csv","legacy","Kafkaesque Koffka","3.2.6","add","0","l","NA","NA","a","a","18963","NA","NA","20951","18963","2","1125","legacy","large","1024","2","48000","-16","experiment","8_4_add_FNI.jpg","19","odd","legacy","154699","NA","81631","NA","NA","2148","NA","2163","62667","154699","156972","23115","60315","2149","mousetracking operator preview effect","0","0","0","no","false","no","1680"
"negative","undefined","1","undefined","undefined","white","no","legacy","legacy","legacy","0","relative","undefined","undefined","31","NA","0","0","0","0","0","0","0","47","47","0","15","0","no","04/24/19 11:07:03","A simple template for the mouse-tracking paradigm","yes","Experiment-TF.osexp","C:\Users\Kristen\Documents\opPreviewExperiment-master\procedure","no","mono","no","24","no","black","no","yes","1050","legacy","31","15","C:/Users/Kristen/Documents/opPreviewExperiment-master/procedure/subject-19.csv","legacy","Kafkaesque Koffka","3.2.6","add","0","l","NA","NA","a","a","18963","NA","NA","20951","18963","2","1013","legacy","large","1024","2","48000","-16","experiment","9_7_add_FI.jpg","19","odd","legacy","157000","NA","81631","NA","NA","2148","NA","2163","62667","157000","159159","23115","60315","2149","mousetracking operator preview effect","0","0","0","no","false","no","1680"
"neutral","undefined","1","undefined","undefined","white","no","legacy","legacy","legacy","0","relative","undefined","undefined","32","NA","0","0","0","0","0","0","0","48","48","0","15","0","no","04/24/19 11:07:03","A simple template for the mouse-tracking paradigm","yes","Experiment-TF.osexp","C:\Users\Kristen\Documents\opPreviewExperiment-master\procedure","no","mono","no","24","no","black","no","yes","1050","legacy","32","15","C:/Users/Kristen/Documents/opPreviewExperiment-master/procedure/subject-19.csv","legacy","Kafkaesque Koffka","3.2.6","add","0","a","NA","NA","a","a","18963","NA","NA","20951","18963","2","1010","legacy","large","1024","2","48000","-16","experiment","9_7_add_true.jpg","19","odd","legacy","159185","NA","81631","NA","NA","2148","NA","2163","62667","159185","161174","23115","60315","2149","mousetracking operator preview effect","0","0","0","no","true","no","1680"
"neutral","undefined","1","undefined","undefined","white","no","legacy","legacy","legacy","0","relative","undefined","undefined","33","NA","0","0","0","0","0","0","0","49","49","0","15","0","no","04/24/19 11:07:03","A simple template for the mouse-tracking paradigm","yes","Experiment-TF.osexp","C:\Users\Kristen\Documents\opPreviewExperiment-master\procedure","no","mono","no","24","no","black","no","yes","1050","legacy","33","15","C:/Users/Kristen/Documents/opPreviewExperiment-master/procedure/subject-19.csv","legacy","Kafkaesque Koffka","3.2.6","add","0","l","NA","NA","a","a","18963","NA","NA","20951","18963","2","2089","legacy","large","1024","2","48000","-16","experiment","9_7_add_FNI.jpg","19","odd","legacy","161195","NA","81631","NA","NA","2148","NA","2163","62667","161195","164259","23115","60315","2149","mousetracking operator preview effect","0","0","0","no","false","no","1680"
"neutral","undefined","1","undefined","undefined","white","no","legacy","legacy","legacy","0","relative","undefined","undefined","34","NA","0","0","0","0","0","0","0","50","50","0","15","0","no","04/24/19 11:07:03","A simple template for the mouse-tracking paradigm","yes","Experiment-TF.osexp","C:\Users\Kristen\Documents\opPreviewExperiment-master\procedure","no","mono","no","24","no","black","no","yes","1050","legacy","34","15","C:/Users/Kristen/Documents/opPreviewExperiment-master/procedure/subject-19.csv","legacy","Kafkaesque Koffka","3.2.6","mult","0","a","NA","NA","a","a","18963","NA","NA","20951","18963","2","869","legacy","small","1024","2","48000","-16","experiment","8_2_mult_true.jpg","19","odd","legacy","164287","NA","81631","NA","NA","2148","NA","2163","62667","164287","166123","23115","60315","2149","mousetracking operator preview effect","0","0","0","no","true","no","1680"
"negative","undefined","1","undefined","undefined","white","no","legacy","legacy","legacy","0","relative","undefined","undefined","35","NA","0","0","0","0","0","0","0","51","51","0","15","0","no","04/24/19 11:07:03","A simple template for the mouse-tracking paradigm","yes","Experiment-TF.osexp","C:\Users\Kristen\Documents\opPreviewExperiment-master\procedure","no","mono","no","24","no","black","no","yes","1050","legacy","35","15","C:/Users/Kristen/Documents/opPreviewExperiment-master/procedure/subject-19.csv","legacy","Kafkaesque Koffka","3.2.6","add","0","a","NA","NA","a","a","18963","NA","NA","20951","18963","2","1648","legacy","large","1024","2","48000","-16","experiment","4_9_add_true.jpg","19","odd","legacy","166142","NA","81631","NA","NA","2148","NA","2163","62667","166142","168933","23115","60315","2149","mousetracking operator preview effect","0","0","0","no","true","no","1680"
"negative","undefined","1","undefined","undefined","white","no","legacy","legacy","legacy","0","relative","undefined","undefined","36","NA","0","0","0","0","0","0","0","52","52","0","15","0","no","04/24/19 11:07:03","A simple template for the mouse-tracking paradigm","yes","Experiment-TF.osexp","C:\Users\Kristen\Documents\opPreviewExperiment-master\procedure","no","mono","no","24","no","black","no","yes","1050","legacy","36","15","C:/Users/Kristen/Documents/opPreviewExperiment-master/procedure/subject-19.csv","legacy","Kafkaesque Koffka","3.2.6","mult","0","a","NA","NA","a","a","18963","NA","NA","20951","18963","2","1287","legacy","small","1024","2","48000","-16","experiment","8_2_mult_true.jpg","19","odd","legacy","168956","NA","81631","NA","NA","2148","NA","2163","62667","168957","171397","23115","60315","2149","mousetracking operator preview effect","0","0","0","no","true","no","1680"
"neutral","undefined","1","undefined","undefined","white","no","legacy","legacy","legacy","0","relative","undefined","undefined","37","NA","0","0","0","0","0","0","0","53","53","0","15","0","no","04/24/19 11:07:03","A simple template for the mouse-tracking paradigm","yes","Experiment-TF.osexp","C:\Users\Kristen\Documents\opPreviewExperiment-master\procedure","no","mono","no","24","no","black","no","yes","1050","legacy","37","15","C:/Users/Kristen/Documents/opPreviewExperiment-master/procedure/subject-19.csv","legacy","Kafkaesque Koffka","3.2.6","add","0","l","NA","NA","a","a","18963","NA","NA","20951","18963","2","1087","legacy","small","1024","2","48000","-16","experiment","5_3_add_FNI.jpg","19","odd","legacy","171428","NA","81631","NA","NA","2148","NA","2163","62667","171428","173491","23115","60315","2149","mousetracking operator preview effect","0","0","0","no","false","no","1680"
"neutral","undefined","0","undefined","undefined","white","no","legacy","legacy","legacy","0","relative","undefined","undefined","38","NA","0","0","0","0","0","0","0","54","54","0","15","0","no","04/24/19 11:07:03","A simple template for the mouse-tracking paradigm","yes","Experiment-TF.osexp","C:\Users\Kristen\Documents\opPreviewExperiment-master\procedure","no","mono","no","24","no","black","no","yes","1050","legacy","38","15","C:/Users/Kristen/Documents/opPreviewExperiment-master/procedure/subject-19.csv","legacy","Kafkaesque Koffka","3.2.6","mult","0","a","NA","NA","a","a","18963","NA","NA","20951","18963","2","1001","legacy","small","1024","2","48000","-16","experiment","2_7_mult_FI.jpg","19","odd","legacy","173512","NA","81631","NA","NA","2148","NA","2163","62667","173512","176510","23115","60315","2149","mousetracking operator preview effect","0","0","0","no","false","no","1680"
"neutral","undefined","1","undefined","undefined","white","no","legacy","legacy","legacy","0","relative","undefined","undefined","39","NA","0","0","0","0","0","0","0","55","55","0","15","0","no","04/24/19 11:07:03","A simple template for the mouse-tracking paradigm","yes","Experiment-TF.osexp","C:\Users\Kristen\Documents\opPreviewExperiment-master\procedure","no","mono","no","24","no","black","no","yes","1050","legacy","39","15","C:/Users/Kristen/Documents/opPreviewExperiment-master/procedure/subject-19.csv","legacy","Kafkaesque Koffka","3.2.6","mult","0","a","NA","NA","a","a","18963","NA","NA","20951","18963","2","1209","legacy","large","1024","2","48000","-16","experiment","4_9_mult_true.jpg","19","odd","legacy","176552","NA","81631","NA","NA","2148","NA","2163","62667","176553","178749","23115","60315","2149","mousetracking operator preview effect","0","0","0","no","true","no","1680"
"negative","undefined","1","undefined","undefined","white","no","legacy","legacy","legacy","0","relative","undefined","undefined","40","NA","0","0","0","0","0","0","0","56","56","0","15","0","no","04/24/19 11:07:03","A simple template for the mouse-tracking paradigm","yes","Experiment-TF.osexp","C:\Users\Kristen\Documents\opPreviewExperiment-master\procedure","no","mono","no","24","no","black","no","yes","1050","legacy","40","15","C:/Users/Kristen/Documents/opPreviewExperiment-master/procedure/subject-19.csv","legacy","Kafkaesque Koffka","3.2.6","mult","0","a","NA","NA","a","a","18963","NA","NA","20951","18963","2","1018","legacy","small","1024","2","48000","-16","experiment","5_3_mult_true.jpg","19","odd","legacy","178777","NA","81631","NA","NA","2148","NA","2163","62667","178777","180943","23115","60315","2149","mousetracking operator preview effect","0","0","0","no","true","no","1680"
"negative","undefined","1","undefined","undefined","white","no","legacy","legacy","legacy","0","relative","undefined","undefined","41","NA","0","0","0","0","0","0","0","57","57","0","15","0","no","04/24/19 11:07:03","A simple template for the mouse-tracking paradigm","yes","Experiment-TF.osexp","C:\Users\Kristen\Documents\opPreviewExperiment-master\procedure","no","mono","no","24","no","black","no","yes","1050","legacy","41","15","C:/Users/Kristen/Documents/opPreviewExperiment-master/procedure/subject-19.csv","legacy","Kafkaesque Koffka","3.2.6","add","0","l","NA","NA","a","a","18963","NA","NA","20951","18963","2","1057","legacy","large","1024","2","48000","-16","experiment","4_9_add_FI.jpg","19","odd","legacy","180971","NA","81631","NA","NA","2148","NA","2163","62667","180971","183184","23115","60315","2149","mousetracking operator preview effect","0","0","0","no","false","no","1680"
"negative","undefined","1","undefined","undefined","white","no","legacy","legacy","legacy","0","relative","undefined","undefined","42","NA","0","0","0","0","0","0","0","58","58","0","15","0","no","04/24/19 11:07:03","A simple template for the mouse-tracking paradigm","yes","Experiment-TF.osexp","C:\Users\Kristen\Documents\opPreviewExperiment-master\procedure","no","mono","no","24","no","black","no","yes","1050","legacy","42","15","C:/Users/Kristen/Documents/opPreviewExperiment-master/procedure/subject-19.csv","legacy","Kafkaesque Koffka","3.2.6","mult","0","l","NA","NA","a","a","18963","NA","NA","20951","18963","2","1008","legacy","large","1024","2","48000","-16","experiment","9_7_mult_FI.jpg","19","odd","legacy","183205","NA","81631","NA","NA","2148","NA","2163","62667","183205","185350","23115","60315","2149","mousetracking operator preview effect","0","0","0","no","false","no","1680"
"neutral","undefined","1","undefined","undefined","white","no","legacy","legacy","legacy","0","relative","undefined","undefined","43","NA","0","0","0","0","0","0","0","59","59","0","15","0","no","04/24/19 11:07:03","A simple template for the mouse-tracking paradigm","yes","Experiment-TF.osexp","C:\Users\Kristen\Documents\opPreviewExperiment-master\procedure","no","mono","no","24","no","black","no","yes","1050","legacy","43","15","C:/Users/Kristen/Documents/opPreviewExperiment-master/procedure/subject-19.csv","legacy","Kafkaesque Koffka","3.2.6","add","0","a","NA","NA","a","a","18963","NA","NA","20951","18963","2","912","legacy","small","1024","2","48000","-16","experiment","5_3_add_true.jpg","19","odd","legacy","185371","NA","81631","NA","NA","2148","NA","2163","62667","185371","187265","23115","60315","2149","mousetracking operator preview effect","0","0","0","no","true","no","1680"
"neutral","undefined","1","undefined","undefined","white","no","legacy","legacy","legacy","0","relative","undefined","undefined","44","NA","0","0","0","0","0","0","0","60","60","0","15","0","no","04/24/19 11:07:03","A simple template for the mouse-tracking paradigm","yes","Experiment-TF.osexp","C:\Users\Kristen\Documents\opPreviewExperiment-master\procedure","no","mono","no","24","no","black","no","yes","1050","legacy","44","15","C:/Users/Kristen/Documents/opPreviewExperiment-master/procedure/subject-19.csv","legacy","Kafkaesque Koffka","3.2.6","mult","0","l","NA","NA","a","a","18963","NA","NA","20951","18963","2","937","legacy","small","1024","2","48000","-16","experiment","8_2_mult_FI.jpg","19","odd","legacy","187287","NA","81631","NA","NA","2148","NA","2163","62667","187287","189201","23115","60315","2149","mousetracking operator preview effect","0","0","0","no","false","no","1680"
"negative","undefined","1","undefined","undefined","white","no","legacy","legacy","legacy","0","relative","undefined","undefined","45","NA","0","0","0","0","0","0","0","61","61","0","15","0","no","04/24/19 11:07:03","A simple template for the mouse-tracking paradigm","yes","Experiment-TF.osexp","C:\Users\Kristen\Documents\opPreviewExperiment-master\procedure","no","mono","no","24","no","black","no","yes","1050","legacy","45","15","C:/Users/Kristen/Documents/opPreviewExperiment-master/procedure/subject-19.csv","legacy","Kafkaesque Koffka","3.2.6","add","0","l","NA","NA","a","a","18963","NA","NA","20951","18963","2","879","legacy","large","1024","2","48000","-16","experiment","4_9_add_FNI.jpg","19","odd","legacy","189223","NA","81631","NA","NA","2148","NA","2163","62667","189223","191260","23115","60315","2149","mousetracking operator preview effect","0","0","0","no","false","no","1680"
"negative","undefined","1","undefined","undefined","white","no","legacy","legacy","legacy","0","relative","undefined","undefined","46","NA","0","0","0","0","0","0","0","62","62","0","15","0","no","04/24/19 11:07:03","A simple template for the mouse-tracking paradigm","yes","Experiment-TF.osexp","C:\Users\Kristen\Documents\opPreviewExperiment-master\procedure","no","mono","no","24","no","black","no","yes","1050","legacy","46","15","C:/Users/Kristen/Documents/opPreviewExperiment-master/procedure/subject-19.csv","legacy","Kafkaesque Koffka","3.2.6","mult","0","a","NA","NA","a","a","18963","NA","NA","20951","18963","2","832","legacy","small","1024","2","48000","-16","experiment","2_7_mult_true.jpg","19","odd","legacy","191286","NA","81631","NA","NA","2148","NA","2163","62667","191286","193258","23115","60315","2149","mousetracking operator preview effect","0","0","0","no","true","no","1680"
"neutral","undefined","1","undefined","undefined","white","no","legacy","legacy","legacy","0","relative","undefined","undefined","47","NA","0","0","0","0","0","0","0","63","63","0","15","0","no","04/24/19 11:07:03","A simple template for the mouse-tracking paradigm","yes","Experiment-TF.osexp","C:\Users\Kristen\Documents\opPreviewExperiment-master\procedure","no","mono","no","24","no","black","no","yes","1050","legacy","47","15","C:/Users/Kristen/Documents/opPreviewExperiment-master/procedure/subject-19.csv","legacy","Kafkaesque Koffka","3.2.6","add","0","l","NA","NA","a","a","18963","NA","NA","20951","18963","2","825","legacy","small","1024","2","48000","-16","experiment","8_2_add_FNI.jpg","19","odd","legacy","193279","NA","81631","NA","NA","2148","NA","2163","62667","193279","195074","23115","60315","2149","mousetracking operator preview effect","0","0","0","no","false","no","1680"
"negative","undefined","1","undefined","undefined","white","no","legacy","legacy","legacy","0","relative","undefined","undefined","48","NA","0","0","0","0","0","0","0","64","64","0","15","0","no","04/24/19 11:07:03","A simple template for the mouse-tracking paradigm","yes","Experiment-TF.osexp","C:\Users\Kristen\Documents\opPreviewExperiment-master\procedure","no","mono","no","24","no","black","no","yes","1050","legacy","48","15","C:/Users/Kristen/Documents/opPreviewExperiment-master/procedure/subject-19.csv","legacy","Kafkaesque Koffka","3.2.6","mult","0","a","NA","NA","a","a","18963","NA","NA","20951","18963","2","757","legacy","small","1024","2","48000","-16","experiment","8_2_mult_true.jpg","19","odd","legacy","195096","NA","81631","NA","NA","2148","NA","2163","62667","195096","196980","23115","60315","2149","mousetracking operator preview effect","0","0","0","no","true","no","1680"
"neutral","undefined","1","undefined","undefined","white","no","legacy","legacy","legacy","0","relative","undefined","undefined","49","NA","0","0","0","0","0","0","0","65","65","0","15","0","no","04/24/19 11:07:03","A simple template for the mouse-tracking paradigm","yes","Experiment-TF.osexp","C:\Users\Kristen\Documents\opPreviewExperiment-master\procedure","no","mono","no","24","no","black","no","yes","1050","legacy","49","15","C:/Users/Kristen/Documents/opPreviewExperiment-master/procedure/subject-19.csv","legacy","Kafkaesque Koffka","3.2.6","add","0","a","NA","NA","a","a","18963","NA","NA","20951","18963","2","1319","legacy","large","1024","2","48000","-16","experiment","4_9_add_true.jpg","19","odd","legacy","197004","NA","81631","NA","NA","2148","NA","2163","62667","197005","199302","23115","60315","2149","mousetracking operator preview effect","0","0","0","no","true","no","1680"
"neutral","undefined","1","undefined","undefined","white","no","legacy","legacy","legacy","0","relative","undefined","undefined","50","NA","0","0","0","0","0","0","0","66","66","0","15","0","no","04/24/19 11:07:03","A simple template for the mouse-tracking paradigm","yes","Experiment-TF.osexp","C:\Users\Kristen\Documents\opPreviewExperiment-master\procedure","no","mono","no","24","no","black","no","yes","1050","legacy","50","15","C:/Users/Kristen/Documents/opPreviewExperiment-master/procedure/subject-19.csv","legacy","Kafkaesque Koffka","3.2.6","mult","0","a","NA","NA","a","a","18963","NA","NA","20951","18963","2","4612","legacy","large","1024","2","48000","-16","experiment","6_8_mult_true.jpg","19","odd","legacy","199331","NA","81631","NA","NA","2148","NA","2163","62667","199331","204918","23115","60315","2149","mousetracking operator preview effect","0","0","0","no","true","no","1680"
"neutral","undefined","1","undefined","undefined","white","no","legacy","legacy","legacy","0","relative","undefined","undefined","51","NA","0","0","0","0","0","0","0","67","67","0","15","0","no","04/24/19 11:07:03","A simple template for the mouse-tracking paradigm","yes","Experiment-TF.osexp","C:\Users\Kristen\Documents\opPreviewExperiment-master\procedure","no","mono","no","24","no","black","no","yes","1050","legacy","51","15","C:/Users/Kristen/Documents/opPreviewExperiment-master/procedure/subject-19.csv","legacy","Kafkaesque Koffka","3.2.6","mult","0","a","NA","NA","a","a","18963","NA","NA","20951","18963","2","918","legacy","small","1024","2","48000","-16","experiment","2_7_mult_true.jpg","19","odd","legacy","204941","NA","81631","NA","NA","2148","NA","2163","62667","204941","206833","23115","60315","2149","mousetracking operator preview effect","0","0","0","no","true","no","1680"
"neutral","undefined","1","undefined","undefined","white","no","legacy","legacy","legacy","0","relative","undefined","undefined","52","NA","0","0","0","0","0","0","0","68","68","0","15","0","no","04/24/19 11:07:03","A simple template for the mouse-tracking paradigm","yes","Experiment-TF.osexp","C:\Users\Kristen\Documents\opPreviewExperiment-master\procedure","no","mono","no","24","no","black","no","yes","1050","legacy","52","15","C:/Users/Kristen/Documents/opPreviewExperiment-master/procedure/subject-19.csv","legacy","Kafkaesque Koffka","3.2.6","mult","0","l","NA","NA","a","a","18963","NA","NA","20951","18963","2","885","legacy","small","1024","2","48000","-16","experiment","8_2_mult_FNI.jpg","19","odd","legacy","206854","NA","81631","NA","NA","2148","NA","2163","62667","206854","208725","23115","60315","2149","mousetracking operator preview effect","0","0","0","no","false","no","1680"
"negative","undefined","1","undefined","undefined","white","no","legacy","legacy","legacy","0","relative","undefined","undefined","53","NA","0","0","0","0","0","0","0","69","69","0","15","0","no","04/24/19 11:07:03","A simple template for the mouse-tracking paradigm","yes","Experiment-TF.osexp","C:\Users\Kristen\Documents\opPreviewExperiment-master\procedure","no","mono","no","24","no","black","no","yes","1050","legacy","53","15","C:/Users/Kristen/Documents/opPreviewExperiment-master/procedure/subject-19.csv","legacy","Kafkaesque Koffka","3.2.6","add","0","a","NA","NA","a","a","18963","NA","NA","20951","18963","2","1428","legacy","large","1024","2","48000","-16","experiment","9_7_add_true.jpg","19","odd","legacy","208746","NA","81631","NA","NA","2148","NA","2163","62667","208746","211335","23115","60315","2149","mousetracking operator preview effect","0","0","0","no","true","no","1680"
"neutral","undefined","1","undefined","undefined","white","no","legacy","legacy","legacy","0","relative","undefined","undefined","54","NA","0","0","0","0","0","0","0","70","70","0","15","0","no","04/24/19 11:07:03","A simple template for the mouse-tracking paradigm","yes","Experiment-TF.osexp","C:\Users\Kristen\Documents\opPreviewExperiment-master\procedure","no","mono","no","24","no","black","no","yes","1050","legacy","54","15","C:/Users/Kristen/Documents/opPreviewExperiment-master/procedure/subject-19.csv","legacy","Kafkaesque Koffka","3.2.6","add","0","a","NA","NA","a","a","18963","NA","NA","20951","18963","2","849","legacy","small","1024","2","48000","-16","experiment","2_7_add_true.jpg","19","odd","legacy","211363","NA","81631","NA","NA","2148","NA","2163","62667","211363","213176","23115","60315","2149","mousetracking operator preview effect","0","0","0","no","true","no","1680"
"negative","undefined","1","undefined","undefined","white","no","legacy","legacy","legacy","0","relative","undefined","undefined","55","NA","0","0","0","0","0","0","0","71","71","0","15","0","no","04/24/19 11:07:03","A simple template for the mouse-tracking paradigm","yes","Experiment-TF.osexp","C:\Users\Kristen\Documents\opPreviewExperiment-master\procedure","no","mono","no","24","no","black","no","yes","1050","legacy","55","15","C:/Users/Kristen/Documents/opPreviewExperiment-master/procedure/subject-19.csv","legacy","Kafkaesque Koffka","3.2.6","mult","0","l","NA","NA","a","a","18963","NA","NA","20951","18963","2","773","legacy","small","1024","2","48000","-16","experiment","8_2_mult_FI.jpg","19","odd","legacy","213197","NA","81631","NA","NA","2148","NA","2163","62667","213197","215120","23115","60315","2149","mousetracking operator preview effect","0","0","0","no","false","no","1680"
"neutral","undefined","1","undefined","undefined","white","no","legacy","legacy","legacy","0","relative","undefined","undefined","56","NA","0","0","0","0","0","0","0","72","72","0","15","0","no","04/24/19 11:07:03","A simple template for the mouse-tracking paradigm","yes","Experiment-TF.osexp","C:\Users\Kristen\Documents\opPreviewExperiment-master\procedure","no","mono","no","24","no","black","no","yes","1050","legacy","56","15","C:/Users/Kristen/Documents/opPreviewExperiment-master/procedure/subject-19.csv","legacy","Kafkaesque Koffka","3.2.6","mult","0","a","NA","NA","a","a","18963","NA","NA","20951","18963","2","1397","legacy","small","1024","2","48000","-16","experiment","5_3_mult_true.jpg","19","odd","legacy","215141","NA","81631","NA","NA","2148","NA","2163","62667","215141","217519","23115","60315","2149","mousetracking operator preview effect","0","0","0","no","true","no","1680"
"neutral","undefined","1","undefined","undefined","white","no","legacy","legacy","legacy","0","relative","undefined","undefined","57","NA","0","0","0","0","0","0","0","73","73","0","15","0","no","04/24/19 11:07:03","A simple template for the mouse-tracking paradigm","yes","Experiment-TF.osexp","C:\Users\Kristen\Documents\opPreviewExperiment-master\procedure","no","mono","no","24","no","black","no","yes","1050","legacy","57","15","C:/Users/Kristen/Documents/opPreviewExperiment-master/procedure/subject-19.csv","legacy","Kafkaesque Koffka","3.2.6","add","0","l","NA","NA","a","a","18963","NA","NA","20951","18963","2","991","legacy","large","1024","2","48000","-16","experiment","6_8_add_FI.jpg","19","odd","legacy","217539","NA","81631","NA","NA","2148","NA","2163","62667","217539","219513","23115","60315","2149","mousetracking operator preview effect","0","0","0","no","false","no","1680"
"neutral","undefined","1","undefined","undefined","white","no","legacy","legacy","legacy","0","relative","undefined","undefined","58","NA","0","0","0","0","0","0","0","74","74","0","15","0","no","04/24/19 11:07:03","A simple template for the mouse-tracking paradigm","yes","Experiment-TF.osexp","C:\Users\Kristen\Documents\opPreviewExperiment-master\procedure","no","mono","no","24","no","black","no","yes","1050","legacy","58","15","C:/Users/Kristen/Documents/opPreviewExperiment-master/procedure/subject-19.csv","legacy","Kafkaesque Koffka","3.2.6","mult","0","a","NA","NA","a","a","18963","NA","NA","20951","18963","2","1472","legacy","small","1024","2","48000","-16","experiment","3_6_mult_true.jpg","19","odd","legacy","219536","NA","81631","NA","NA","2148","NA","2163","62667","219536","221984","23115","60315","2149","mousetracking operator preview effect","0","0","0","no","true","no","1680"
"neutral","undefined","1","undefined","undefined","white","no","legacy","legacy","legacy","0","relative","undefined","undefined","59","NA","0","0","0","0","0","0","0","75","75","0","15","0","no","04/24/19 11:07:03","A simple template for the mouse-tracking paradigm","yes","Experiment-TF.osexp","C:\Users\Kristen\Documents\opPreviewExperiment-master\procedure","no","mono","no","24","no","black","no","yes","1050","legacy","59","15","C:/Users/Kristen/Documents/opPreviewExperiment-master/procedure/subject-19.csv","legacy","Kafkaesque Koffka","3.2.6","add","0","a","NA","NA","a","a","18963","NA","NA","20951","18963","2","730","legacy","small","1024","2","48000","-16","experiment","8_2_add_true.jpg","19","odd","legacy","222013","NA","81631","NA","NA","2148","NA","2163","62667","222013","223715","23115","60315","2149","mousetracking operator preview effect","0","0","0","no","true","no","1680"
"negative","undefined","1","undefined","undefined","white","no","legacy","legacy","legacy","0","relative","undefined","undefined","60","NA","0","0","0","0","0","0","0","76","76","0","15","0","no","04/24/19 11:07:03","A simple template for the mouse-tracking paradigm","yes","Experiment-TF.osexp","C:\Users\Kristen\Documents\opPreviewExperiment-master\procedure","no","mono","no","24","no","black","no","yes","1050","legacy","60","15","C:/Users/Kristen/Documents/opPreviewExperiment-master/procedure/subject-19.csv","legacy","Kafkaesque Koffka","3.2.6","add","0","l","NA","NA","a","a","18963","NA","NA","20951","18963","2","720","legacy","small","1024","2","48000","-16","experiment","2_7_add_FI.jpg","19","odd","legacy","223749","NA","81631","NA","NA","2148","NA","2163","62667","223749","225622","23115","60315","2149","mousetracking operator preview effect","0","0","0","no","false","no","1680"
"neutral","undefined","1","undefined","undefined","white","no","legacy","legacy","legacy","0","relative","undefined","undefined","61","NA","0","0","0","0","0","0","0","77","77","0","15","0","no","04/24/19 11:07:03","A simple template for the mouse-tracking paradigm","yes","Experiment-TF.osexp","C:\Users\Kristen\Documents\opPreviewExperiment-master\procedure","no","mono","no","24","no","black","no","yes","1050","legacy","61","15","C:/Users/Kristen/Documents/opPreviewExperiment-master/procedure/subject-19.csv","legacy","Kafkaesque Koffka","3.2.6","mult","0","a","NA","NA","a","a","18963","NA","NA","20951","18963","2","1281","legacy","large","1024","2","48000","-16","experiment","9_7_mult_true.jpg","19","odd","legacy","225643","NA","81631","NA","NA","2148","NA","2163","62667","225643","227904","23115","60315","2149","mousetracking operator preview effect","0","0","0","no","true","no","1680"
"neutral","undefined","1","undefined","undefined","white","no","legacy","legacy","legacy","0","relative","undefined","undefined","62","NA","0","0","0","0","0","0","0","78","78","0","15","0","no","04/24/19 11:07:03","A simple template for the mouse-tracking paradigm","yes","Experiment-TF.osexp","C:\Users\Kristen\Documents\opPreviewExperiment-master\procedure","no","mono","no","24","no","black","no","yes","1050","legacy","62","15","C:/Users/Kristen/Documents/opPreviewExperiment-master/procedure/subject-19.csv","legacy","Kafkaesque Koffka","3.2.6","mult","0","l","NA","NA","a","a","18963","NA","NA","20951","18963","2","1071","legacy","large","1024","2","48000","-16","experiment","6_8_mult_FNI.jpg","19","odd","legacy","227928","NA","81631","NA","NA","2148","NA","2163","62667","227928","229985","23115","60315","2149","mousetracking operator preview effect","0","0","0","no","false","no","1680"
"neutral","undefined","1","undefined","undefined","white","no","legacy","legacy","legacy","0","relative","undefined","undefined","63","NA","0","0","0","0","0","0","0","79","79","0","15","0","no","04/24/19 11:07:03","A simple template for the mouse-tracking paradigm","yes","Experiment-TF.osexp","C:\Users\Kristen\Documents\opPreviewExperiment-master\procedure","no","mono","no","24","no","black","no","yes","1050","legacy","63","15","C:/Users/Kristen/Documents/opPreviewExperiment-master/procedure/subject-19.csv","legacy","Kafkaesque Koffka","3.2.6","mult","0","a","NA","NA","a","a","18963","NA","NA","20951","18963","2","861","legacy","small","1024","2","48000","-16","experiment","8_2_mult_true.jpg","19","odd","legacy","230005","NA","81631","NA","NA","2148","NA","2163","62667","230005","231835","23115","60315","2149","mousetracking operator preview effect","0","0","0","no","true","no","1680"
"negative","undefined","1","undefined","undefined","white","no","legacy","legacy","legacy","0","relative","undefined","undefined","64","NA","0","0","0","0","0","0","0","80","80","0","15","0","no","04/24/19 11:07:03","A simple template for the mouse-tracking paradigm","yes","Experiment-TF.osexp","C:\Users\Kristen\Documents\opPreviewExperiment-master\procedure","no","mono","no","24","no","black","no","yes","1050","legacy","64","15","C:/Users/Kristen/Documents/opPreviewExperiment-master/procedure/subject-19.csv","legacy","Kafkaesque Koffka","3.2.6","mult","0","a","NA","NA","a","a","18963","NA","NA","20951","18963","2","1127","legacy","large","1024","2","48000","-16","experiment","9_7_mult_true.jpg","19","odd","legacy","231856","NA","81631","NA","NA","2148","NA","2163","62667","231856","234150","23115","60315","2149","mousetracking operator preview effect","0","0","0","no","true","no","1680"
"neutral","undefined","1","undefined","undefined","white","no","legacy","legacy","legacy","0","relative","undefined","undefined","65","NA","0","0","0","0","0","0","0","81","81","0","15","0","no","04/24/19 11:07:03","A simple template for the mouse-tracking paradigm","yes","Experiment-TF.osexp","C:\Users\Kristen\Documents\opPreviewExperiment-master\procedure","no","mono","no","24","no","black","no","yes","1050","legacy","65","15","C:/Users/Kristen/Documents/opPreviewExperiment-master/procedure/subject-19.csv","legacy","Kafkaesque Koffka","3.2.6","add","0","a","NA","NA","a","a","18963","NA","NA","20951","18963","2","914","legacy","small","1024","2","48000","-16","experiment","3_6_add_true.jpg","19","odd","legacy","234174","NA","81631","NA","NA","2148","NA","2163","62667","234174","236067","23115","60315","2149","mousetracking operator preview effect","0","0","0","no","true","no","1680"
"negative","undefined","1","undefined","undefined","white","no","legacy","legacy","legacy","0","relative","undefined","undefined","66","NA","0","0","0","0","0","0","0","82","82","0","15","0","no","04/24/19 11:07:03","A simple template for the mouse-tracking paradigm","yes","Experiment-TF.osexp","C:\Users\Kristen\Documents\opPreviewExperiment-master\procedure","no","mono","no","24","no","black","no","yes","1050","legacy","66","15","C:/Users/Kristen/Documents/opPreviewExperiment-master/procedure/subject-19.csv","legacy","Kafkaesque Koffka","3.2.6","add","0","l","NA","NA","a","a","18963","NA","NA","20951","18963","2","823","legacy","small","1024","2","48000","-16","experiment","5_3_add_FNI.jpg","19","odd","legacy","236090","NA","81631","NA","NA","2148","NA","2163","62667","236090","238031","23115","60315","2149","mousetracking operator preview effect","0","0","0","no","false","no","1680"
"neutral","undefined","1","undefined","undefined","white","no","legacy","legacy","legacy","0","relative","undefined","undefined","67","NA","0","0","0","0","0","0","0","83","83","0","15","0","no","04/24/19 11:07:03","A simple template for the mouse-tracking paradigm","yes","Experiment-TF.osexp","C:\Users\Kristen\Documents\opPreviewExperiment-master\procedure","no","mono","no","24","no","black","no","yes","1050","legacy","67","15","C:/Users/Kristen/Documents/opPreviewExperiment-master/procedure/subject-19.csv","legacy","Kafkaesque Koffka","3.2.6","add","0","l","NA","NA","a","a","18963","NA","NA","20951","18963","2","988","legacy","small","1024","2","48000","-16","experiment","8_2_add_FI.jpg","19","odd","legacy","238062","NA","81631","NA","NA","2148","NA","2163","62667","238062","240020","23115","60315","2149","mousetracking operator preview effect","0","0","0","no","false","no","1680"
"neutral","undefined","1","undefined","undefined","white","no","legacy","legacy","legacy","0","relative","undefined","undefined","68","NA","0","0","0","0","0","0","0","84","84","0","15","0","no","04/24/19 11:07:03","A simple template for the mouse-tracking paradigm","yes","Experiment-TF.osexp","C:\Users\Kristen\Documents\opPreviewExperiment-master\procedure","no","mono","no","24","no","black","no","yes","1050","legacy","68","15","C:/Users/Kristen/Documents/opPreviewExperiment-master/procedure/subject-19.csv","legacy","Kafkaesque Koffka","3.2.6","add","0","l","NA","NA","a","a","18963","NA","NA","20951","18963","2","904","legacy","large","1024","2","48000","-16","experiment","8_4_add_FI.jpg","19","odd","legacy","240043","NA","81631","NA","NA","2148","NA","2163","62667","240043","241912","23115","60315","2149","mousetracking operator preview effect","0","0","0","no","false","no","1680"
"negative","undefined","1","undefined","undefined","white","no","legacy","legacy","legacy","0","relative","undefined","undefined","69","NA","0","0","0","0","0","0","0","85","85","0","15","0","no","04/24/19 11:07:03","A simple template for the mouse-tracking paradigm","yes","Experiment-TF.osexp","C:\Users\Kristen\Documents\opPreviewExperiment-master\procedure","no","mono","no","24","no","black","no","yes","1050","legacy","69","15","C:/Users/Kristen/Documents/opPreviewExperiment-master/procedure/subject-19.csv","legacy","Kafkaesque Koffka","3.2.6","mult","0","a","NA","NA","a","a","18963","NA","NA","20951","18963","2","820","legacy","small","1024","2","48000","-16","experiment","3_6_mult_true.jpg","19","odd","legacy","241943","NA","81631","NA","NA","2148","NA","2163","62667","241943","243910","23115","60315","2149","mousetracking operator preview effect","0","0","0","no","true","no","1680"
"negative","undefined","1","undefined","undefined","white","no","legacy","legacy","legacy","0","relative","undefined","undefined","70","NA","0","0","0","0","0","0","0","86","86","0","15","0","no","04/24/19 11:07:03","A simple template for the mouse-tracking paradigm","yes","Experiment-TF.osexp","C:\Users\Kristen\Documents\opPreviewExperiment-master\procedure","no","mono","no","24","no","black","no","yes","1050","legacy","70","15","C:/Users/Kristen/Documents/opPreviewExperiment-master/procedure/subject-19.csv","legacy","Kafkaesque Koffka","3.2.6","mult","0","a","NA","NA","a","a","18963","NA","NA","20951","18963","2","1001","legacy","large","1024","2","48000","-16","experiment","9_7_mult_true.jpg","19","odd","legacy","243925","NA","81631","NA","NA","2148","NA","2163","62667","243925","246047","23115","60315","2149","mousetracking operator preview effect","0","0","0","no","true","no","1680"
"neutral","undefined","1","undefined","undefined","white","no","legacy","legacy","legacy","0","relative","undefined","undefined","71","NA","0","0","0","0","0","0","0","87","87","0","15","0","no","04/24/19 11:07:03","A simple template for the mouse-tracking paradigm","yes","Experiment-TF.osexp","C:\Users\Kristen\Documents\opPreviewExperiment-master\procedure","no","mono","no","24","no","black","no","yes","1050","legacy","71","15","C:/Users/Kristen/Documents/opPreviewExperiment-master/procedure/subject-19.csv","legacy","Kafkaesque Koffka","3.2.6","mult","0","l","NA","NA","a","a","18963","NA","NA","20951","18963","2","915","legacy","small","1024","2","48000","-16","experiment","2_7_mult_FNI.jpg","19","odd","legacy","246063","NA","81631","NA","NA","2148","NA","2163","62667","246063","247949","23115","60315","2149","mousetracking operator preview effect","0","0","0","no","false","no","1680"
"neutral","undefined","1","undefined","undefined","white","no","legacy","legacy","legacy","0","relative","undefined","undefined","72","NA","0","0","0","0","0","0","0","88","88","0","15","0","no","04/24/19 11:07:03","A simple template for the mouse-tracking paradigm","yes","Experiment-TF.osexp","C:\Users\Kristen\Documents\opPreviewExperiment-master\procedure","no","mono","no","24","no","black","no","yes","1050","legacy","72","15","C:/Users/Kristen/Documents/opPreviewExperiment-master/procedure/subject-19.csv","legacy","Kafkaesque Koffka","3.2.6","add","0","l","NA","NA","a","a","18963","NA","NA","20951","18963","2","1303","legacy","large","1024","2","48000","-16","experiment","9_7_add_FI.jpg","19","odd","legacy","247972","NA","81631","NA","NA","2148","NA","2163","62667","247972","250257","23115","60315","2149","mousetracking operator preview effect","0","0","0","no","false","no","1680"
"negative","undefined","0","undefined","undefined","white","no","legacy","legacy","legacy","0","relative","undefined","undefined","73","NA","0","0","0","0","0","0","0","89","89","0","15","0","no","04/24/19 11:07:03","A simple template for the mouse-tracking paradigm","yes","Experiment-TF.osexp","C:\Users\Kristen\Documents\opPreviewExperiment-master\procedure","no","mono","no","24","no","black","no","yes","1050","legacy","73","15","C:/Users/Kristen/Documents/opPreviewExperiment-master/procedure/subject-19.csv","legacy","Kafkaesque Koffka","3.2.6","add","0","l","NA","NA","a","a","18963","NA","NA","20951","18963","2","933","legacy","large","1024","2","48000","-16","experiment","6_8_add_true.jpg","19","odd","legacy","250277","NA","81631","NA","NA","2148","NA","2163","62667","250277","253370","23115","60315","2149","mousetracking operator preview effect","0","0","0","no","true","no","1680"
"neutral","undefined","1","undefined","undefined","white","no","legacy","legacy","legacy","0","relative","undefined","undefined","74","NA","0","0","0","0","0","0","0","90","90","0","15","0","no","04/24/19 11:07:03","A simple template for the mouse-tracking paradigm","yes","Experiment-TF.osexp","C:\Users\Kristen\Documents\opPreviewExperiment-master\procedure","no","mono","no","24","no","black","no","yes","1050","legacy","74","15","C:/Users/Kristen/Documents/opPreviewExperiment-master/procedure/subject-19.csv","legacy","Kafkaesque Koffka","3.2.6","add","0","a","NA","NA","a","a","18963","NA","NA","20951","18963","2","1106","legacy","large","1024","2","48000","-16","experiment","6_8_add_true.jpg","19","odd","legacy","253408","NA","81631","NA","NA","2148","NA","2163","62667","253409","255488","23115","60315","2149","mousetracking operator preview effect","0","0","0","no","true","no","1680"
"negative","undefined","1","undefined","undefined","white","no","legacy","legacy","legacy","0","relative","undefined","undefined","75","NA","0","0","0","0","0","0","0","91","91","0","15","0","no","04/24/19 11:07:03","A simple template for the mouse-tracking paradigm","yes","Experiment-TF.osexp","C:\Users\Kristen\Documents\opPreviewExperiment-master\procedure","no","mono","no","24","no","black","no","yes","1050","legacy","75","15","C:/Users/Kristen/Documents/opPreviewExperiment-master/procedure/subject-19.csv","legacy","Kafkaesque Koffka","3.2.6","add","0","a","NA","NA","a","a","18963","NA","NA","20951","18963","2","766","legacy","small","1024","2","48000","-16","experiment","3_6_add_true.jpg","19","odd","legacy","255504","NA","81631","NA","NA","2148","NA","2163","62667","255504","257413","23115","60315","2149","mousetracking operator preview effect","0","0","0","no","true","no","1680"
"negative","undefined","1","undefined","undefined","white","no","legacy","legacy","legacy","0","relative","undefined","undefined","76","NA","0","0","0","0","0","0","0","92","92","0","15","0","no","04/24/19 11:07:03","A simple template for the mouse-tracking paradigm","yes","Experiment-TF.osexp","C:\Users\Kristen\Documents\opPreviewExperiment-master\procedure","no","mono","no","24","no","black","no","yes","1050","legacy","76","15","C:/Users/Kristen/Documents/opPreviewExperiment-master/procedure/subject-19.csv","legacy","Kafkaesque Koffka","3.2.6","add","0","a","NA","NA","a","a","18963","NA","NA","20951","18963","2","995","legacy","large","1024","2","48000","-16","experiment","6_8_add_true.jpg","19","odd","legacy","257434","NA","81631","NA","NA","2148","NA","2163","62667","257434","259579","23115","60315","2149","mousetracking operator preview effect","0","0","0","no","true","no","1680"
"neutral","undefined","1","undefined","undefined","white","no","legacy","legacy","legacy","0","relative","undefined","undefined","77","NA","0","0","0","0","0","0","0","93","93","0","15","0","no","04/24/19 11:07:03","A simple template for the mouse-tracking paradigm","yes","Experiment-TF.osexp","C:\Users\Kristen\Documents\opPreviewExperiment-master\procedure","no","mono","no","24","no","black","no","yes","1050","legacy","77","15","C:/Users/Kristen/Documents/opPreviewExperiment-master/procedure/subject-19.csv","legacy","Kafkaesque Koffka","3.2.6","mult","0","a","NA","NA","a","a","18963","NA","NA","20951","18963","2","1071","legacy","large","1024","2","48000","-16","experiment","8_4_mult_true.jpg","19","odd","legacy","259609","NA","81631","NA","NA","2148","NA","2163","62667","259609","261658","23115","60315","2149","mousetracking operator preview effect","0","0","0","no","true","no","1680"
"negative","undefined","1","undefined","undefined","white","no","legacy","legacy","legacy","0","relative","undefined","undefined","78","NA","0","0","0","0","0","0","0","94","94","0","15","0","no","04/24/19 11:07:03","A simple template for the mouse-tracking paradigm","yes","Experiment-TF.osexp","C:\Users\Kristen\Documents\opPreviewExperiment-master\procedure","no","mono","no","24","no","black","no","yes","1050","legacy","78","15","C:/Users/Kristen/Documents/opPreviewExperiment-master/procedure/subject-19.csv","legacy","Kafkaesque Koffka","3.2.6","mult","0","a","NA","NA","a","a","18963","NA","NA","20951","18963","2","679","legacy","small","1024","2","48000","-16","experiment","5_3_mult_true.jpg","19","odd","legacy","261688","NA","81631","NA","NA","2148","NA","2163","62667","261688","263495","23115","60315","2149","mousetracking operator preview effect","0","0","0","no","true","no","1680"
"neutral","undefined","1","undefined","undefined","white","no","legacy","legacy","legacy","0","relative","undefined","undefined","79","NA","0","0","0","0","0","0","0","95","95","0","15","0","no","04/24/19 11:07:03","A simple template for the mouse-tracking paradigm","yes","Experiment-TF.osexp","C:\Users\Kristen\Documents\opPreviewExperiment-master\procedure","no","mono","no","24","no","black","no","yes","1050","legacy","79","15","C:/Users/Kristen/Documents/opPreviewExperiment-master/procedure/subject-19.csv","legacy","Kafkaesque Koffka","3.2.6","mult","0","a","NA","NA","a","a","18963","NA","NA","20951","18963","2","545","legacy","small","1024","2","48000","-16","experiment","5_3_mult_true.jpg","19","odd","legacy","263519","NA","81631","NA","NA","2148","NA","2163","62667","263519","265044","23115","60315","2149","mousetracking operator preview effect","0","0","0","no","true","no","1680"
"neutral","undefined","1","undefined","undefined","white","no","legacy","legacy","legacy","0","relative","undefined","undefined","80","NA","0","0","0","0","0","0","0","96","96","0","15","0","no","04/24/19 11:07:03","A simple template for the mouse-tracking paradigm","yes","Experiment-TF.osexp","C:\Users\Kristen\Documents\opPreviewExperiment-master\procedure","no","mono","no","24","no","black","no","yes","1050","legacy","80","15","C:/Users/Kristen/Documents/opPreviewExperiment-master/procedure/subject-19.csv","legacy","Kafkaesque Koffka","3.2.6","add","0","l","NA","NA","a","a","18963","NA","NA","20951","18963","2","1090","legacy","small","1024","2","48000","-16","experiment","2_7_add_FI.jpg","19","odd","legacy","265058","NA","81631","NA","NA","2148","NA","2163","62667","265058","267129","23115","60315","2149","mousetracking operator preview effect","0","0","0","no","false","no","1680"
"negative","undefined","1","undefined","undefined","white","no","legacy","legacy","legacy","0","relative","undefined","undefined","81","NA","0","0","0","0","0","0","0","97","97","0","15","0","no","04/24/19 11:07:03","A simple template for the mouse-tracking paradigm","yes","Experiment-TF.osexp","C:\Users\Kristen\Documents\opPreviewExperiment-master\procedure","no","mono","no","24","no","black","no","yes","1050","legacy","81","15","C:/Users/Kristen/Documents/opPreviewExperiment-master/procedure/subject-19.csv","legacy","Kafkaesque Koffka","3.2.6","add","0","l","NA","NA","a","a","18963","NA","NA","20951","18963","2","855","legacy","small","1024","2","48000","-16","experiment","8_2_add_FI.jpg","19","odd","legacy","267158","NA","81631","NA","NA","2148","NA","2163","62667","267158","269170","23115","60315","2149","mousetracking operator preview effect","0","0","0","no","false","no","1680"
"neutral","undefined","1","undefined","undefined","white","no","legacy","legacy","legacy","0","relative","undefined","undefined","82","NA","0","0","0","0","0","0","0","98","98","0","15","0","no","04/24/19 11:07:03","A simple template for the mouse-tracking paradigm","yes","Experiment-TF.osexp","C:\Users\Kristen\Documents\opPreviewExperiment-master\procedure","no","mono","no","24","no","black","no","yes","1050","legacy","82","15","C:/Users/Kristen/Documents/opPreviewExperiment-master/procedure/subject-19.csv","legacy","Kafkaesque Koffka","3.2.6","add","0","a","NA","NA","a","a","18963","NA","NA","20951","18963","2","812","legacy","small","1024","2","48000","-16","experiment","5_3_add_true.jpg","19","odd","legacy","269200","NA","81631","NA","NA","2148","NA","2163","62667","269200","270995","23115","60315","2149","mousetracking operator preview effect","0","0","0","no","true","no","1680"
"negative","undefined","1","undefined","undefined","white","no","legacy","legacy","legacy","0","relative","undefined","undefined","83","NA","0","0","0","0","0","0","0","99","99","0","15","0","no","04/24/19 11:07:03","A simple template for the mouse-tracking paradigm","yes","Experiment-TF.osexp","C:\Users\Kristen\Documents\opPreviewExperiment-master\procedure","no","mono","no","24","no","black","no","yes","1050","legacy","83","15","C:/Users/Kristen/Documents/opPreviewExperiment-master/procedure/subject-19.csv","legacy","Kafkaesque Koffka","3.2.6","mult","0","l","NA","NA","a","a","18963","NA","NA","20951","18963","2","1481","legacy","small","1024","2","48000","-16","experiment","5_3_mult_FNI.jpg","19","odd","legacy","271026","NA","81631","NA","NA","2148","NA","2163","62667","271026","273666","23115","60315","2149","mousetracking operator preview effect","0","0","0","no","false","no","1680"
"negative","undefined","1","undefined","undefined","white","no","legacy","legacy","legacy","0","relative","undefined","undefined","84","NA","0","0","0","0","0","0","0","100","100","0","15","0","no","04/24/19 11:07:03","A simple template for the mouse-tracking paradigm","yes","Experiment-TF.osexp","C:\Users\Kristen\Documents\opPreviewExperiment-master\procedure","no","mono","no","24","no","black","no","yes","1050","legacy","84","15","C:/Users/Kristen/Documents/opPreviewExperiment-master/procedure/subject-19.csv","legacy","Kafkaesque Koffka","3.2.6","mult","0","l","NA","NA","a","a","18963","NA","NA","20951","18963","2","1816","legacy","large","1024","2","48000","-16","experiment","9_7_mult_FNI.jpg","19","odd","legacy","273697","NA","81631","NA","NA","2148","NA","2163","62667","273697","276654","23115","60315","2149","mousetracking operator preview effect","0","0","0","no","false","no","1680"
"neutral","undefined","1","undefined","undefined","white","no","legacy","legacy","legacy","0","relative","undefined","undefined","85","NA","0","0","0","0","0","0","0","101","101","0","15","0","no","04/24/19 11:07:03","A simple template for the mouse-tracking paradigm","yes","Experiment-TF.osexp","C:\Users\Kristen\Documents\opPreviewExperiment-master\procedure","no","mono","no","24","no","black","no","yes","1050","legacy","85","15","C:/Users/Kristen/Documents/opPreviewExperiment-master/procedure/subject-19.csv","legacy","Kafkaesque Koffka","3.2.6","mult","0","a","NA","NA","a","a","18963","NA","NA","20951","18963","2","825","legacy","large","1024","2","48000","-16","experiment","4_9_mult_true.jpg","19","odd","legacy","276683","NA","81631","NA","NA","2148","NA","2163","62667","276684","278483","23115","60315","2149","mousetracking operator preview effect","0","0","0","no","true","no","1680"
"neutral","undefined","1","undefined","undefined","white","no","legacy","legacy","legacy","0","relative","undefined","undefined","86","NA","0","0","0","0","0","0","0","102","102","0","15","0","no","04/24/19 11:07:03","A simple template for the mouse-tracking paradigm","yes","Experiment-TF.osexp","C:\Users\Kristen\Documents\opPreviewExperiment-master\procedure","no","mono","no","24","no","black","no","yes","1050","legacy","86","15","C:/Users/Kristen/Documents/opPreviewExperiment-master/procedure/subject-19.csv","legacy","Kafkaesque Koffka","3.2.6","mult","0","l","NA","NA","a","a","18963","NA","NA","20951","18963","2","1001","legacy","small","1024","2","48000","-16","experiment","5_3_mult_FNI.jpg","19","odd","legacy","278504","NA","81631","NA","NA","2148","NA","2163","62667","278504","280479","23115","60315","2149","mousetracking operator preview effect","0","0","0","no","false","no","1680"
"neutral","undefined","1","undefined","undefined","white","no","legacy","legacy","legacy","0","relative","undefined","undefined","87","NA","0","0","0","0","0","0","0","103","103","0","15","0","no","04/24/19 11:07:03","A simple template for the mouse-tracking paradigm","yes","Experiment-TF.osexp","C:\Users\Kristen\Documents\opPreviewExperiment-master\procedure","no","mono","no","24","no","black","no","yes","1050","legacy","87","15","C:/Users/Kristen/Documents/opPreviewExperiment-master/procedure/subject-19.csv","legacy","Kafkaesque Koffka","3.2.6","mult","0","l","NA","NA","a","a","18963","NA","NA","20951","18963","2","1040","legacy","large","1024","2","48000","-16","experiment","4_9_mult_FI.jpg","19","odd","legacy","280504","NA","81631","NA","NA","2148","NA","2163","62667","280504","282514","23115","60315","2149","mousetracking operator preview effect","0","0","0","no","false","no","1680"
"neutral","undefined","1","undefined","undefined","white","no","legacy","legacy","legacy","0","relative","undefined","undefined","88","NA","0","0","0","0","0","0","0","104","104","0","15","0","no","04/24/19 11:07:03","A simple template for the mouse-tracking paradigm","yes","Experiment-TF.osexp","C:\Users\Kristen\Documents\opPreviewExperiment-master\procedure","no","mono","no","24","no","black","no","yes","1050","legacy","88","15","C:/Users/Kristen/Documents/opPreviewExperiment-master/procedure/subject-19.csv","legacy","Kafkaesque Koffka","3.2.6","add","0","l","NA","NA","a","a","18963","NA","NA","20951","18963","2","878","legacy","large","1024","2","48000","-16","experiment","4_9_add_FI.jpg","19","odd","legacy","282534","NA","81631","NA","NA","2148","NA","2163","62667","282534","284390","23115","60315","2149","mousetracking operator preview effect","0","0","0","no","false","no","1680"
"negative","undefined","1","undefined","undefined","white","no","legacy","legacy","legacy","0","relative","undefined","undefined","89","NA","0","0","0","0","0","0","0","105","105","0","15","0","no","04/24/19 11:07:03","A simple template for the mouse-tracking paradigm","yes","Experiment-TF.osexp","C:\Users\Kristen\Documents\opPreviewExperiment-master\procedure","no","mono","no","24","no","black","no","yes","1050","legacy","89","15","C:/Users/Kristen/Documents/opPreviewExperiment-master/procedure/subject-19.csv","legacy","Kafkaesque Koffka","3.2.6","mult","0","l","NA","NA","a","a","18963","NA","NA","20951","18963","2","844","legacy","large","1024","2","48000","-16","experiment","6_8_mult_FI.jpg","19","odd","legacy","284411","NA","81631","NA","NA","2148","NA","2163","62667","284411","286415","23115","60315","2149","mousetracking operator preview effect","0","0","0","no","false","no","1680"
"negative","undefined","1","undefined","undefined","white","no","legacy","legacy","legacy","0","relative","undefined","undefined","90","NA","0","0","0","0","0","0","0","106","106","0","15","0","no","04/24/19 11:07:03","A simple template for the mouse-tracking paradigm","yes","Experiment-TF.osexp","C:\Users\Kristen\Documents\opPreviewExperiment-master\procedure","no","mono","no","24","no","black","no","yes","1050","legacy","90","15","C:/Users/Kristen/Documents/opPreviewExperiment-master/procedure/subject-19.csv","legacy","Kafkaesque Koffka","3.2.6","mult","0","l","NA","NA","a","a","18963","NA","NA","20951","18963","2","1014","legacy","large","1024","2","48000","-16","experiment","4_9_mult_FI.jpg","19","odd","legacy","286429","NA","81631","NA","NA","2148","NA","2163","62667","286429","288569","23115","60315","2149","mousetracking operator preview effect","0","0","0","no","false","no","1680"
"neutral","undefined","1","undefined","undefined","white","no","legacy","legacy","legacy","0","relative","undefined","undefined","91","NA","0","0","0","0","0","0","0","107","107","0","15","0","no","04/24/19 11:07:03","A simple template for the mouse-tracking paradigm","yes","Experiment-TF.osexp","C:\Users\Kristen\Documents\opPreviewExperiment-master\procedure","no","mono","no","24","no","black","no","yes","1050","legacy","91","15","C:/Users/Kristen/Documents/opPreviewExperiment-master/procedure/subject-19.csv","legacy","Kafkaesque Koffka","3.2.6","mult","0","l","NA","NA","a","a","18963","NA","NA","20951","18963","2","1041","legacy","large","1024","2","48000","-16","experiment","8_4_mult_FI.jpg","19","odd","legacy","288600","NA","81631","NA","NA","2148","NA","2163","62667","288600","290624","23115","60315","2149","mousetracking operator preview effect","0","0","0","no","false","no","1680"
"neutral","undefined","1","undefined","undefined","white","no","legacy","legacy","legacy","0","relative","undefined","undefined","92","NA","0","0","0","0","0","0","0","108","108","0","15","0","no","04/24/19 11:07:03","A simple template for the mouse-tracking paradigm","yes","Experiment-TF.osexp","C:\Users\Kristen\Documents\opPreviewExperiment-master\procedure","no","mono","no","24","no","black","no","yes","1050","legacy","92","15","C:/Users/Kristen/Documents/opPreviewExperiment-master/procedure/subject-19.csv","legacy","Kafkaesque Koffka","3.2.6","add","0","a","NA","NA","a","a","18963","NA","NA","20951","18963","2","858","legacy","large","1024","2","48000","-16","experiment","8_4_add_true.jpg","19","odd","legacy","290645","NA","81631","NA","NA","2148","NA","2163","62667","290645","292473","23115","60315","2149","mousetracking operator preview effect","0","0","0","no","true","no","1680"
