"SOAcondition","acc","accuracy","average_response_time","avg_rt","background","bidi","canvas_backend","clock_backend","color_backend","compensation","coordinates","correct","correct_instruction1","count_block1_sequence","count_block2_sequence","count_block_1","count_block_2","count_breakScreen","count_experiment","count_finish","count_instruction1","count_instruction2","count_keyboard_script","count_logger","count_practiceBlock","count_practice_sequence","count_setup_script","custom_cursor","datetime","description","disable_garbage_collection","experiment_file","experiment_path","font_bold","font_family","font_italic","font_size","font_underline","foreground","form_clicks","fullscreen","height","keyboard_backend","live_row","live_row_practiceBlock","logfile","mouse_backend","opensesame_codename","opensesame_version","operation","repeat_cycle","response","response_breakScreen","response_finish","response_instruction1","response_instruction2","response_time","response_time_breakScreen","response_time_finish","response_time_instruction1","response_time_instruction2","round_decimals","rt","sampler_backend","size","sound_buf_size","sound_channels","sound_freq","sound_sample_size","start","stimulus","subject_nr","subject_parity","synth_backend","time_block1_sequence","time_block2_sequence","time_block_1","time_block_2","time_breakScreen","time_experiment","time_finish","time_instruction1","time_instruction2","time_keyboard_script","time_logger","time_practiceBlock","time_practice_sequence","time_setup_script","title","total_correct","total_response_time","total_responses","transparent_variables","truth","uniform_coordinates","width"
"neutral","undefined","1","undefined","undefined","white","no","legacy","legacy","legacy","0","relative","undefined","undefined","NA","NA","0","0","0","0","0","0","0","0","0","0","0","0","no","04/29/19 12:12:34","A simple template for the mouse-tracking paradigm","yes","Experiment-TF.osexp","C:\Users\Kristen\Documents\opPreviewExperiment-master\procedure","no","mono","no","24","no","black","no","yes","1050","legacy","0","0","C:/Users/Kristen/Documents/opPreviewExperiment-master/procedure/subject-23.csv","legacy","Kafkaesque Koffka","3.2.6","mult","0","a","NA","NA","a","NA","20079","NA","NA","20079","NA","2","4406","legacy","NA","1024","2","48000","-16","experiment","0_3_mult_T.jpg","23","odd","legacy","NA","NA","NA","NA","NA","2310","NA","2326","NA","22409","27809","22406","22408","2312","mousetracking operator preview effect","0","0","0","no","true","no","1680"
"neutral","undefined","1","undefined","undefined","white","no","legacy","legacy","legacy","0","relative","undefined","undefined","NA","NA","0","0","0","0","0","0","0","1","1","0","1","0","no","04/29/19 12:12:34","A simple template for the mouse-tracking paradigm","yes","Experiment-TF.osexp","C:\Users\Kristen\Documents\opPreviewExperiment-master\procedure","no","mono","no","24","no","black","no","yes","1050","legacy","1","1","C:/Users/Kristen/Documents/opPreviewExperiment-master/procedure/subject-23.csv","legacy","Kafkaesque Koffka","3.2.6","add","0","a","NA","NA","a","NA","20079","NA","NA","20079","NA","2","1810","legacy","NA","1024","2","48000","-16","experiment","1_4_add_T.jpg","23","odd","legacy","NA","NA","NA","NA","NA","2310","NA","2326","NA","27835","30615","22406","27835","2312","mousetracking operator preview effect","0","0","0","no","true","no","1680"
"neutral","undefined","1","undefined","undefined","white","no","legacy","legacy","legacy","0","relative","undefined","undefined","NA","NA","0","0","0","0","0","0","0","2","2","0","2","0","no","04/29/19 12:12:34","A simple template for the mouse-tracking paradigm","yes","Experiment-TF.osexp","C:\Users\Kristen\Documents\opPreviewExperiment-master\procedure","no","mono","no","24","no","black","no","yes","1050","legacy","2","2","C:/Users/Kristen/Documents/opPreviewExperiment-master/procedure/subject-23.csv","legacy","Kafkaesque Koffka","3.2.6","mult","0","l","NA","NA","a","NA","20079","NA","NA","20079","NA","2","4584","legacy","NA","1024","2","48000","-16","experiment","0_3_mult_F.jpg","23","odd","legacy","NA","NA","NA","NA","NA","2310","NA","2326","NA","30637","36199","22406","30637","2312","mousetracking operator preview effect","0","0","0","no","false","no","1680"
"negative","undefined","0","undefined","undefined","white","no","legacy","legacy","legacy","0","relative","undefined","undefined","NA","NA","0","0","0","0","0","0","0","3","3","0","3","0","no","04/29/19 12:12:34","A simple template for the mouse-tracking paradigm","yes","Experiment-TF.osexp","C:\Users\Kristen\Documents\opPreviewExperiment-master\procedure","no","mono","no","24","no","black","no","yes","1050","legacy","3","3","C:/Users/Kristen/Documents/opPreviewExperiment-master/procedure/subject-23.csv","legacy","Kafkaesque Koffka","3.2.6","mult","0","a","NA","NA","a","NA","20079","NA","NA","20079","NA","2","1645","legacy","NA","1024","2","48000","-16","experiment","1_4_mult_F.jpg","23","odd","legacy","NA","NA","NA","NA","NA","2310","NA","2326","NA","36227","40037","22406","36227","2312","mousetracking operator preview effect","0","0","0","no","false","no","1680"
"negative","undefined","1","undefined","undefined","white","no","legacy","legacy","legacy","0","relative","undefined","undefined","NA","NA","0","0","0","0","0","0","0","4","4","0","4","0","no","04/29/19 12:12:34","A simple template for the mouse-tracking paradigm","yes","Experiment-TF.osexp","C:\Users\Kristen\Documents\opPreviewExperiment-master\procedure","no","mono","no","24","no","black","no","yes","1050","legacy","4","4","C:/Users/Kristen/Documents/opPreviewExperiment-master/procedure/subject-23.csv","legacy","Kafkaesque Koffka","3.2.6","add","0","l","NA","NA","a","NA","20079","NA","NA","20079","NA","2","1845","legacy","NA","1024","2","48000","-16","experiment","1_4_add_F.jpg","23","odd","legacy","NA","NA","NA","NA","NA","2310","NA","2326","NA","40081","43084","22406","40080","2312","mousetracking operator preview effect","0","0","0","no","false","no","1680"
"neutral","undefined","1","undefined","undefined","white","no","legacy","legacy","legacy","0","relative","undefined","undefined","NA","NA","0","0","0","0","0","0","0","5","5","0","5","0","no","04/29/19 12:12:34","A simple template for the mouse-tracking paradigm","yes","Experiment-TF.osexp","C:\Users\Kristen\Documents\opPreviewExperiment-master\procedure","no","mono","no","24","no","black","no","yes","1050","legacy","5","5","C:/Users/Kristen/Documents/opPreviewExperiment-master/procedure/subject-23.csv","legacy","Kafkaesque Koffka","3.2.6","add","0","l","NA","NA","a","NA","20079","NA","NA","20079","NA","2","1313","legacy","NA","1024","2","48000","-16","experiment","0_3_add_F.jpg","23","odd","legacy","NA","NA","NA","NA","NA","2310","NA","2326","NA","43115","45406","22406","43115","2312","mousetracking operator preview effect","0","0","0","no","false","no","1680"
"negative","undefined","1","undefined","undefined","white","no","legacy","legacy","legacy","0","relative","undefined","undefined","NA","NA","0","0","0","0","0","0","0","6","6","0","6","0","no","04/29/19 12:12:34","A simple template for the mouse-tracking paradigm","yes","Experiment-TF.osexp","C:\Users\Kristen\Documents\opPreviewExperiment-master\procedure","no","mono","no","24","no","black","no","yes","1050","legacy","6","6","C:/Users/Kristen/Documents/opPreviewExperiment-master/procedure/subject-23.csv","legacy","Kafkaesque Koffka","3.2.6","mult","0","l","NA","NA","a","NA","20079","NA","NA","20079","NA","2","1470","legacy","NA","1024","2","48000","-16","experiment","0_3_mult_F.jpg","23","odd","legacy","NA","NA","NA","NA","NA","2310","NA","2326","NA","45432","48053","22406","45432","2312","mousetracking operator preview effect","0","0","0","no","false","no","1680"
"negative","undefined","1","undefined","undefined","white","no","legacy","legacy","legacy","0","relative","undefined","undefined","NA","NA","0","0","0","0","0","0","0","7","7","0","7","0","no","04/29/19 12:12:34","A simple template for the mouse-tracking paradigm","yes","Experiment-TF.osexp","C:\Users\Kristen\Documents\opPreviewExperiment-master\procedure","no","mono","no","24","no","black","no","yes","1050","legacy","7","7","C:/Users/Kristen/Documents/opPreviewExperiment-master/procedure/subject-23.csv","legacy","Kafkaesque Koffka","3.2.6","mult","0","a","NA","NA","a","NA","20079","NA","NA","20079","NA","2","1082","legacy","NA","1024","2","48000","-16","experiment","1_4_mult_T.jpg","23","odd","legacy","NA","NA","NA","NA","NA","2310","NA","2326","NA","48083","50316","22406","48083","2312","mousetracking operator preview effect","0","0","0","no","true","no","1680"
"neutral","undefined","1","undefined","undefined","white","no","legacy","legacy","legacy","0","relative","undefined","undefined","NA","NA","0","0","0","0","0","0","0","8","8","0","8","0","no","04/29/19 12:12:34","A simple template for the mouse-tracking paradigm","yes","Experiment-TF.osexp","C:\Users\Kristen\Documents\opPreviewExperiment-master\procedure","no","mono","no","24","no","black","no","yes","1050","legacy","8","8","C:/Users/Kristen/Documents/opPreviewExperiment-master/procedure/subject-23.csv","legacy","Kafkaesque Koffka","3.2.6","mult","0","l","NA","NA","a","NA","20079","NA","NA","20079","NA","2","1223","legacy","NA","1024","2","48000","-16","experiment","1_4_mult_F.jpg","23","odd","legacy","NA","NA","NA","NA","NA","2310","NA","2326","NA","50337","52536","22406","50337","2312","mousetracking operator preview effect","0","0","0","no","false","no","1680"
"neutral","undefined","1","undefined","undefined","white","no","legacy","legacy","legacy","0","relative","undefined","undefined","NA","NA","0","0","0","0","0","0","0","9","9","0","9","0","no","04/29/19 12:12:34","A simple template for the mouse-tracking paradigm","yes","Experiment-TF.osexp","C:\Users\Kristen\Documents\opPreviewExperiment-master\procedure","no","mono","no","24","no","black","no","yes","1050","legacy","9","9","C:/Users/Kristen/Documents/opPreviewExperiment-master/procedure/subject-23.csv","legacy","Kafkaesque Koffka","3.2.6","mult","0","a","NA","NA","a","NA","20079","NA","NA","20079","NA","2","2454","legacy","NA","1024","2","48000","-16","experiment","1_4_mult_T.jpg","23","odd","legacy","NA","NA","NA","NA","NA","2310","NA","2326","NA","52563","55977","22406","52562","2312","mousetracking operator preview effect","0","0","0","no","true","no","1680"
"negative","undefined","1","undefined","undefined","white","no","legacy","legacy","legacy","0","relative","undefined","undefined","NA","NA","0","0","0","0","0","0","0","10","10","0","10","0","no","04/29/19 12:12:34","A simple template for the mouse-tracking paradigm","yes","Experiment-TF.osexp","C:\Users\Kristen\Documents\opPreviewExperiment-master\procedure","no","mono","no","24","no","black","no","yes","1050","legacy","10","10","C:/Users/Kristen/Documents/opPreviewExperiment-master/procedure/subject-23.csv","legacy","Kafkaesque Koffka","3.2.6","add","0","l","NA","NA","a","NA","20079","NA","NA","20079","NA","2","1431","legacy","NA","1024","2","48000","-16","experiment","0_3_add_F.jpg","23","odd","legacy","NA","NA","NA","NA","NA","2310","NA","2326","NA","55991","58551","22406","55991","2312","mousetracking operator preview effect","0","0","0","no","false","no","1680"
"negative","undefined","1","undefined","undefined","white","no","legacy","legacy","legacy","0","relative","undefined","undefined","NA","NA","0","0","0","0","0","0","0","11","11","0","11","0","no","04/29/19 12:12:34","A simple template for the mouse-tracking paradigm","yes","Experiment-TF.osexp","C:\Users\Kristen\Documents\opPreviewExperiment-master\procedure","no","mono","no","24","no","black","no","yes","1050","legacy","11","11","C:/Users/Kristen/Documents/opPreviewExperiment-master/procedure/subject-23.csv","legacy","Kafkaesque Koffka","3.2.6","add","0","a","NA","NA","a","NA","20079","NA","NA","20079","NA","2","2370","legacy","NA","1024","2","48000","-16","experiment","0_3_add_T.jpg","23","odd","legacy","NA","NA","NA","NA","NA","2310","NA","2326","NA","58572","62089","22406","58572","2312","mousetracking operator preview effect","0","0","0","no","true","no","1680"
"neutral","undefined","1","undefined","undefined","white","no","legacy","legacy","legacy","0","relative","undefined","undefined","NA","NA","0","0","0","0","0","0","0","12","12","0","12","0","no","04/29/19 12:12:34","A simple template for the mouse-tracking paradigm","yes","Experiment-TF.osexp","C:\Users\Kristen\Documents\opPreviewExperiment-master\procedure","no","mono","no","24","no","black","no","yes","1050","legacy","12","12","C:/Users/Kristen/Documents/opPreviewExperiment-master/procedure/subject-23.csv","legacy","Kafkaesque Koffka","3.2.6","add","0","l","NA","NA","a","NA","20079","NA","NA","20079","NA","2","1254","legacy","NA","1024","2","48000","-16","experiment","1_4_add_F.jpg","23","odd","legacy","NA","NA","NA","NA","NA","2310","NA","2326","NA","62110","64327","22406","62110","2312","mousetracking operator preview effect","0","0","0","no","false","no","1680"
"neutral","undefined","1","undefined","undefined","white","no","legacy","legacy","legacy","0","relative","undefined","undefined","NA","NA","0","0","0","0","0","0","0","13","13","0","13","0","no","04/29/19 12:12:34","A simple template for the mouse-tracking paradigm","yes","Experiment-TF.osexp","C:\Users\Kristen\Documents\opPreviewExperiment-master\procedure","no","mono","no","24","no","black","no","yes","1050","legacy","13","13","C:/Users/Kristen/Documents/opPreviewExperiment-master/procedure/subject-23.csv","legacy","Kafkaesque Koffka","3.2.6","add","0","a","NA","NA","a","NA","20079","NA","NA","20079","NA","2","2322","legacy","NA","1024","2","48000","-16","experiment","0_3_add_T.jpg","23","odd","legacy","NA","NA","NA","NA","NA","2310","NA","2326","NA","64355","67658","22406","64355","2312","mousetracking operator preview effect","0","0","0","no","true","no","1680"
"negative","undefined","1","undefined","undefined","white","no","legacy","legacy","legacy","0","relative","undefined","undefined","NA","NA","0","0","0","0","0","0","0","14","14","0","14","0","no","04/29/19 12:12:34","A simple template for the mouse-tracking paradigm","yes","Experiment-TF.osexp","C:\Users\Kristen\Documents\opPreviewExperiment-master\procedure","no","mono","no","24","no","black","no","yes","1050","legacy","14","14","C:/Users/Kristen/Documents/opPreviewExperiment-master/procedure/subject-23.csv","legacy","Kafkaesque Koffka","3.2.6","add","0","a","NA","NA","a","NA","20079","NA","NA","20079","NA","2","1347","legacy","NA","1024","2","48000","-16","experiment","1_4_add_T.jpg","23","odd","legacy","NA","NA","NA","NA","NA","2310","NA","2326","NA","67680","70176","22406","67680","2312","mousetracking operator preview effect","0","0","0","no","true","no","1680"
"negative","undefined","1","undefined","undefined","white","no","legacy","legacy","legacy","0","relative","undefined","undefined","NA","NA","0","0","0","0","0","0","0","15","15","0","15","0","no","04/29/19 12:12:34","A simple template for the mouse-tracking paradigm","yes","Experiment-TF.osexp","C:\Users\Kristen\Documents\opPreviewExperiment-master\procedure","no","mono","no","24","no","black","no","yes","1050","legacy","15","15","C:/Users/Kristen/Documents/opPreviewExperiment-master/procedure/subject-23.csv","legacy","Kafkaesque Koffka","3.2.6","mult","0","a","NA","NA","a","NA","20079","NA","NA","20079","NA","2","1386","legacy","NA","1024","2","48000","-16","experiment","0_3_mult_T.jpg","23","odd","legacy","NA","NA","NA","NA","NA","2310","NA","2326","NA","70196","72731","22406","70196","2312","mousetracking operator preview effect","0","0","0","no","true","no","1680"
"neutral","undefined","1","undefined","undefined","white","no","legacy","legacy","legacy","0","relative","undefined","undefined","0","NA","0","0","0","0","0","0","0","16","16","0","15","0","no","04/29/19 12:12:34","A simple template for the mouse-tracking paradigm","yes","Experiment-TF.osexp","C:\Users\Kristen\Documents\opPreviewExperiment-master\procedure","no","mono","no","24","no","black","no","yes","1050","legacy","0","15","C:/Users/Kristen/Documents/opPreviewExperiment-master/procedure/subject-23.csv","legacy","Kafkaesque Koffka","3.2.6","mult","0","l","NA","NA","a","a","9690","NA","NA","20079","9690","2","2406","legacy","large","1024","2","48000","-16","experiment","9_7_mult_FI.jpg","23","odd","legacy","82460","NA","82456","NA","NA","2310","NA","2326","72765","82460","85836","22406","70196","2312","mousetracking operator preview effect","0","0","0","no","false","no","1680"
"negative","undefined","0","undefined","undefined","white","no","legacy","legacy","legacy","0","relative","undefined","undefined","1","NA","0","0","0","0","0","0","0","17","17","0","15","0","no","04/29/19 12:12:34","A simple template for the mouse-tracking paradigm","yes","Experiment-TF.osexp","C:\Users\Kristen\Documents\opPreviewExperiment-master\procedure","no","mono","no","24","no","black","no","yes","1050","legacy","1","15","C:/Users/Kristen/Documents/opPreviewExperiment-master/procedure/subject-23.csv","legacy","Kafkaesque Koffka","3.2.6","add","0","l","NA","NA","a","a","9690","NA","NA","20079","9690","2","0","legacy","large","1024","2","48000","-16","experiment","9_7_add_true.jpg","23","odd","legacy","85859","NA","82456","NA","NA","2310","NA","2326","72765","85859","88025","22406","70196","2312","mousetracking operator preview effect","0","0","0","no","true","no","1680"
"neutral","undefined","1","undefined","undefined","white","no","legacy","legacy","legacy","0","relative","undefined","undefined","2","NA","0","0","0","0","0","0","0","18","18","0","15","0","no","04/29/19 12:12:34","A simple template for the mouse-tracking paradigm","yes","Experiment-TF.osexp","C:\Users\Kristen\Documents\opPreviewExperiment-master\procedure","no","mono","no","24","no","black","no","yes","1050","legacy","2","15","C:/Users/Kristen/Documents/opPreviewExperiment-master/procedure/subject-23.csv","legacy","Kafkaesque Koffka","3.2.6","mult","0","a","NA","NA","a","a","9690","NA","NA","20079","9690","2","4598","legacy","large","1024","2","48000","-16","experiment","8_4_mult_true.jpg","23","odd","legacy","88063","NA","82456","NA","NA","2310","NA","2326","72765","88063","93633","22406","70196","2312","mousetracking operator preview effect","0","0","0","no","true","no","1680"
"negative","undefined","1","undefined","undefined","white","no","legacy","legacy","legacy","0","relative","undefined","undefined","3","NA","0","0","0","0","0","0","0","19","19","0","15","0","no","04/29/19 12:12:34","A simple template for the mouse-tracking paradigm","yes","Experiment-TF.osexp","C:\Users\Kristen\Documents\opPreviewExperiment-master\procedure","no","mono","no","24","no","black","no","yes","1050","legacy","3","15","C:/Users/Kristen/Documents/opPreviewExperiment-master/procedure/subject-23.csv","legacy","Kafkaesque Koffka","3.2.6","mult","0","a","NA","NA","a","a","9690","NA","NA","20079","9690","2","1322","legacy","small","1024","2","48000","-16","experiment","8_2_mult_true.jpg","23","odd","legacy","93654","NA","82456","NA","NA","2310","NA","2326","72765","93654","96118","22406","70196","2312","mousetracking operator preview effect","0","0","0","no","true","no","1680"
"negative","undefined","0","undefined","undefined","white","no","legacy","legacy","legacy","0","relative","undefined","undefined","4","NA","0","0","0","0","0","0","0","20","20","0","15","0","no","04/29/19 12:12:34","A simple template for the mouse-tracking paradigm","yes","Experiment-TF.osexp","C:\Users\Kristen\Documents\opPreviewExperiment-master\procedure","no","mono","no","24","no","black","no","yes","1050","legacy","4","15","C:/Users/Kristen/Documents/opPreviewExperiment-master/procedure/subject-23.csv","legacy","Kafkaesque Koffka","3.2.6","add","0","l","NA","NA","a","a","9690","NA","NA","20079","9690","2","1438","legacy","small","1024","2","48000","-16","experiment","3_6_add_true.jpg","23","odd","legacy","96140","NA","82456","NA","NA","2310","NA","2326","72765","96140","99741","22406","70196","2312","mousetracking operator preview effect","0","0","0","no","true","no","1680"
"negative","undefined","1","undefined","undefined","white","no","legacy","legacy","legacy","0","relative","undefined","undefined","5","NA","0","0","0","0","0","0","0","21","21","0","15","0","no","04/29/19 12:12:34","A simple template for the mouse-tracking paradigm","yes","Experiment-TF.osexp","C:\Users\Kristen\Documents\opPreviewExperiment-master\procedure","no","mono","no","24","no","black","no","yes","1050","legacy","5","15","C:/Users/Kristen/Documents/opPreviewExperiment-master/procedure/subject-23.csv","legacy","Kafkaesque Koffka","3.2.6","add","0","l","NA","NA","a","a","9690","NA","NA","20079","9690","2","2572","legacy","large","1024","2","48000","-16","experiment","4_9_add_FNI.jpg","23","odd","legacy","99785","NA","82456","NA","NA","2310","NA","2326","72765","99785","103514","22406","70196","2312","mousetracking operator preview effect","0","0","0","no","false","no","1680"
"negative","undefined","1","undefined","undefined","white","no","legacy","legacy","legacy","0","relative","undefined","undefined","6","NA","0","0","0","0","0","0","0","22","22","0","15","0","no","04/29/19 12:12:34","A simple template for the mouse-tracking paradigm","yes","Experiment-TF.osexp","C:\Users\Kristen\Documents\opPreviewExperiment-master\procedure","no","mono","no","24","no","black","no","yes","1050","legacy","6","15","C:/Users/Kristen/Documents/opPreviewExperiment-master/procedure/subject-23.csv","legacy","Kafkaesque Koffka","3.2.6","mult","0","l","NA","NA","a","a","9690","NA","NA","20079","9690","2","1930","legacy","large","1024","2","48000","-16","experiment","6_8_mult_FI.jpg","23","odd","legacy","103534","NA","82456","NA","NA","2310","NA","2326","72765","103534","106599","22406","70196","2312","mousetracking operator preview effect","0","0","0","no","false","no","1680"
"neutral","undefined","1","undefined","undefined","white","no","legacy","legacy","legacy","0","relative","undefined","undefined","7","NA","0","0","0","0","0","0","0","23","23","0","15","0","no","04/29/19 12:12:34","A simple template for the mouse-tracking paradigm","yes","Experiment-TF.osexp","C:\Users\Kristen\Documents\opPreviewExperiment-master\procedure","no","mono","no","24","no","black","no","yes","1050","legacy","7","15","C:/Users/Kristen/Documents/opPreviewExperiment-master/procedure/subject-23.csv","legacy","Kafkaesque Koffka","3.2.6","mult","0","a","NA","NA","a","a","9690","NA","NA","20079","9690","2","2930","legacy","large","1024","2","48000","-16","experiment","9_7_mult_true.jpg","23","odd","legacy","106625","NA","82456","NA","NA","2310","NA","2326","72765","106625","110530","22406","70196","2312","mousetracking operator preview effect","0","0","0","no","true","no","1680"
"negative","undefined","1","undefined","undefined","white","no","legacy","legacy","legacy","0","relative","undefined","undefined","8","NA","0","0","0","0","0","0","0","24","24","0","15","0","no","04/29/19 12:12:34","A simple template for the mouse-tracking paradigm","yes","Experiment-TF.osexp","C:\Users\Kristen\Documents\opPreviewExperiment-master\procedure","no","mono","no","24","no","black","no","yes","1050","legacy","8","15","C:/Users/Kristen/Documents/opPreviewExperiment-master/procedure/subject-23.csv","legacy","Kafkaesque Koffka","3.2.6","add","0","a","NA","NA","a","a","9690","NA","NA","20079","9690","2","3318","legacy","large","1024","2","48000","-16","experiment","6_8_add_true.jpg","23","odd","legacy","110560","NA","82456","NA","NA","2310","NA","2326","72765","110560","115023","22406","70196","2312","mousetracking operator preview effect","0","0","0","no","true","no","1680"
"neutral","undefined","1","undefined","undefined","white","no","legacy","legacy","legacy","0","relative","undefined","undefined","9","NA","0","0","0","0","0","0","0","25","25","0","15","0","no","04/29/19 12:12:34","A simple template for the mouse-tracking paradigm","yes","Experiment-TF.osexp","C:\Users\Kristen\Documents\opPreviewExperiment-master\procedure","no","mono","no","24","no","black","no","yes","1050","legacy","9","15","C:/Users/Kristen/Documents/opPreviewExperiment-master/procedure/subject-23.csv","legacy","Kafkaesque Koffka","3.2.6","add","0","a","NA","NA","a","a","9690","NA","NA","20079","9690","2","1375","legacy","large","1024","2","48000","-16","experiment","6_8_add_true.jpg","23","odd","legacy","115046","NA","82456","NA","NA","2310","NA","2326","72765","115046","117396","22406","70196","2312","mousetracking operator preview effect","0","0","0","no","true","no","1680"
"neutral","undefined","1","undefined","undefined","white","no","legacy","legacy","legacy","0","relative","undefined","undefined","10","NA","0","0","0","0","0","0","0","26","26","0","15","0","no","04/29/19 12:12:34","A simple template for the mouse-tracking paradigm","yes","Experiment-TF.osexp","C:\Users\Kristen\Documents\opPreviewExperiment-master\procedure","no","mono","no","24","no","black","no","yes","1050","legacy","10","15","C:/Users/Kristen/Documents/opPreviewExperiment-master/procedure/subject-23.csv","legacy","Kafkaesque Koffka","3.2.6","add","0","l","NA","NA","a","a","9690","NA","NA","20079","9690","2","2947","legacy","large","1024","2","48000","-16","experiment","4_9_add_FNI.jpg","23","odd","legacy","117415","NA","82456","NA","NA","2310","NA","2326","72765","117416","121335","22406","70196","2312","mousetracking operator preview effect","0","0","0","no","false","no","1680"
"negative","undefined","1","undefined","undefined","white","no","legacy","legacy","legacy","0","relative","undefined","undefined","11","NA","0","0","0","0","0","0","0","27","27","0","15","0","no","04/29/19 12:12:34","A simple template for the mouse-tracking paradigm","yes","Experiment-TF.osexp","C:\Users\Kristen\Documents\opPreviewExperiment-master\procedure","no","mono","no","24","no","black","no","yes","1050","legacy","11","15","C:/Users/Kristen/Documents/opPreviewExperiment-master/procedure/subject-23.csv","legacy","Kafkaesque Koffka","3.2.6","mult","0","l","NA","NA","a","a","9690","NA","NA","20079","9690","2","2527","legacy","large","1024","2","48000","-16","experiment","4_9_mult_FNI.jpg","23","odd","legacy","121356","NA","82456","NA","NA","2310","NA","2326","72765","121356","125028","22406","70196","2312","mousetracking operator preview effect","0","0","0","no","false","no","1680"
"neutral","undefined","0","undefined","undefined","white","no","legacy","legacy","legacy","0","relative","undefined","undefined","12","NA","0","0","0","0","0","0","0","28","28","0","15","0","no","04/29/19 12:12:34","A simple template for the mouse-tracking paradigm","yes","Experiment-TF.osexp","C:\Users\Kristen\Documents\opPreviewExperiment-master\procedure","no","mono","no","24","no","black","no","yes","1050","legacy","12","15","C:/Users/Kristen/Documents/opPreviewExperiment-master/procedure/subject-23.csv","legacy","Kafkaesque Koffka","3.2.6","add","0","a","NA","NA","a","a","9690","NA","NA","20079","9690","2","4504","legacy","large","1024","2","48000","-16","experiment","9_7_add_FNI.jpg","23","odd","legacy","125051","NA","82456","NA","NA","2310","NA","2326","72765","125051","131541","22406","70196","2312","mousetracking operator preview effect","0","0","0","no","false","no","1680"
"neutral","undefined","1","undefined","undefined","white","no","legacy","legacy","legacy","0","relative","undefined","undefined","13","NA","0","0","0","0","0","0","0","29","29","0","15","0","no","04/29/19 12:12:34","A simple template for the mouse-tracking paradigm","yes","Experiment-TF.osexp","C:\Users\Kristen\Documents\opPreviewExperiment-master\procedure","no","mono","no","24","no","black","no","yes","1050","legacy","13","15","C:/Users/Kristen/Documents/opPreviewExperiment-master/procedure/subject-23.csv","legacy","Kafkaesque Koffka","3.2.6","mult","0","a","NA","NA","a","a","9690","NA","NA","20079","9690","2","1060","legacy","small","1024","2","48000","-16","experiment","8_2_mult_true.jpg","23","odd","legacy","131578","NA","82456","NA","NA","2310","NA","2326","72765","131578","133602","22406","70196","2312","mousetracking operator preview effect","0","0","0","no","true","no","1680"
"negative","undefined","1","undefined","undefined","white","no","legacy","legacy","legacy","0","relative","undefined","undefined","14","NA","0","0","0","0","0","0","0","30","30","0","15","0","no","04/29/19 12:12:34","A simple template for the mouse-tracking paradigm","yes","Experiment-TF.osexp","C:\Users\Kristen\Documents\opPreviewExperiment-master\procedure","no","mono","no","24","no","black","no","yes","1050","legacy","14","15","C:/Users/Kristen/Documents/opPreviewExperiment-master/procedure/subject-23.csv","legacy","Kafkaesque Koffka","3.2.6","add","0","a","NA","NA","a","a","9690","NA","NA","20079","9690","2","2798","legacy","large","1024","2","48000","-16","experiment","8_4_add_true.jpg","23","odd","legacy","133623","NA","82456","NA","NA","2310","NA","2326","72765","133623","137567","22406","70196","2312","mousetracking operator preview effect","0","0","0","no","true","no","1680"
"neutral","undefined","1","undefined","undefined","white","no","legacy","legacy","legacy","0","relative","undefined","undefined","15","NA","0","0","0","0","0","0","0","31","31","0","15","0","no","04/29/19 12:12:34","A simple template for the mouse-tracking paradigm","yes","Experiment-TF.osexp","C:\Users\Kristen\Documents\opPreviewExperiment-master\procedure","no","mono","no","24","no","black","no","yes","1050","legacy","15","15","C:/Users/Kristen/Documents/opPreviewExperiment-master/procedure/subject-23.csv","legacy","Kafkaesque Koffka","3.2.6","add","0","a","NA","NA","a","a","9690","NA","NA","20079","9690","2","4166","legacy","large","1024","2","48000","-16","experiment","6_8_add_true.jpg","23","odd","legacy","137581","NA","82456","NA","NA","2310","NA","2326","72765","137581","142725","22406","70196","2312","mousetracking operator preview effect","0","0","0","no","true","no","1680"
"negative","undefined","1","undefined","undefined","white","no","legacy","legacy","legacy","0","relative","undefined","undefined","16","NA","0","0","0","0","0","0","0","32","32","0","15","0","no","04/29/19 12:12:34","A simple template for the mouse-tracking paradigm","yes","Experiment-TF.osexp","C:\Users\Kristen\Documents\opPreviewExperiment-master\procedure","no","mono","no","24","no","black","no","yes","1050","legacy","16","15","C:/Users/Kristen/Documents/opPreviewExperiment-master/procedure/subject-23.csv","legacy","Kafkaesque Koffka","3.2.6","add","0","a","NA","NA","a","a","9690","NA","NA","20079","9690","2","1186","legacy","small","1024","2","48000","-16","experiment","2_7_add_true.jpg","23","odd","legacy","142740","NA","82456","NA","NA","2310","NA","2326","72765","142740","145049","22406","70196","2312","mousetracking operator preview effect","0","0","0","no","true","no","1680"
"neutral","undefined","1","undefined","undefined","white","no","legacy","legacy","legacy","0","relative","undefined","undefined","17","NA","0","0","0","0","0","0","0","33","33","0","15","0","no","04/29/19 12:12:34","A simple template for the mouse-tracking paradigm","yes","Experiment-TF.osexp","C:\Users\Kristen\Documents\opPreviewExperiment-master\procedure","no","mono","no","24","no","black","no","yes","1050","legacy","17","15","C:/Users/Kristen/Documents/opPreviewExperiment-master/procedure/subject-23.csv","legacy","Kafkaesque Koffka","3.2.6","mult","0","a","NA","NA","a","a","9690","NA","NA","20079","9690","2","1214","legacy","large","1024","2","48000","-16","experiment","4_9_mult_true.jpg","23","odd","legacy","145077","NA","82456","NA","NA","2310","NA","2326","72765","145077","147273","22406","70196","2312","mousetracking operator preview effect","0","0","0","no","true","no","1680"
"negative","undefined","1","undefined","undefined","white","no","legacy","legacy","legacy","0","relative","undefined","undefined","18","NA","0","0","0","0","0","0","0","34","34","0","15","0","no","04/29/19 12:12:34","A simple template for the mouse-tracking paradigm","yes","Experiment-TF.osexp","C:\Users\Kristen\Documents\opPreviewExperiment-master\procedure","no","mono","no","24","no","black","no","yes","1050","legacy","18","15","C:/Users/Kristen/Documents/opPreviewExperiment-master/procedure/subject-23.csv","legacy","Kafkaesque Koffka","3.2.6","mult","0","l","NA","NA","a","a","9690","NA","NA","20079","9690","2","1354","legacy","small","1024","2","48000","-16","experiment","3_6_mult_FNI.jpg","23","odd","legacy","147300","NA","82456","NA","NA","2310","NA","2326","72765","147300","149805","22406","70196","2312","mousetracking operator preview effect","0","0","0","no","false","no","1680"
"neutral","undefined","1","undefined","undefined","white","no","legacy","legacy","legacy","0","relative","undefined","undefined","19","NA","0","0","0","0","0","0","0","35","35","0","15","0","no","04/29/19 12:12:34","A simple template for the mouse-tracking paradigm","yes","Experiment-TF.osexp","C:\Users\Kristen\Documents\opPreviewExperiment-master\procedure","no","mono","no","24","no","black","no","yes","1050","legacy","19","15","C:/Users/Kristen/Documents/opPreviewExperiment-master/procedure/subject-23.csv","legacy","Kafkaesque Koffka","3.2.6","mult","0","a","NA","NA","a","a","9690","NA","NA","20079","9690","2","1164","legacy","small","1024","2","48000","-16","experiment","3_6_mult_true.jpg","23","odd","legacy","149827","NA","82456","NA","NA","2310","NA","2326","72765","149827","151970","22406","70196","2312","mousetracking operator preview effect","0","0","0","no","true","no","1680"
"negative","undefined","1","undefined","undefined","white","no","legacy","legacy","legacy","0","relative","undefined","undefined","20","NA","0","0","0","0","0","0","0","36","36","0","15","0","no","04/29/19 12:12:34","A simple template for the mouse-tracking paradigm","yes","Experiment-TF.osexp","C:\Users\Kristen\Documents\opPreviewExperiment-master\procedure","no","mono","no","24","no","black","no","yes","1050","legacy","20","15","C:/Users/Kristen/Documents/opPreviewExperiment-master/procedure/subject-23.csv","legacy","Kafkaesque Koffka","3.2.6","add","0","l","NA","NA","a","a","9690","NA","NA","20079","9690","2","3237","legacy","large","1024","2","48000","-16","experiment","9_7_add_FI.jpg","23","odd","legacy","151990","NA","82456","NA","NA","2310","NA","2326","72765","151990","156368","22406","70196","2312","mousetracking operator preview effect","0","0","0","no","false","no","1680"
"neutral","undefined","1","undefined","undefined","white","no","legacy","legacy","legacy","0","relative","undefined","undefined","21","NA","0","0","0","0","0","0","0","37","37","0","15","0","no","04/29/19 12:12:34","A simple template for the mouse-tracking paradigm","yes","Experiment-TF.osexp","C:\Users\Kristen\Documents\opPreviewExperiment-master\procedure","no","mono","no","24","no","black","no","yes","1050","legacy","21","15","C:/Users/Kristen/Documents/opPreviewExperiment-master/procedure/subject-23.csv","legacy","Kafkaesque Koffka","3.2.6","add","0","l","NA","NA","a","a","9690","NA","NA","20079","9690","2","2502","legacy","small","1024","2","48000","-16","experiment","5_3_add_FNI.jpg","23","odd","legacy","156398","NA","82456","NA","NA","2310","NA","2326","72765","156398","159872","22406","70196","2312","mousetracking operator preview effect","0","0","0","no","false","no","1680"
"neutral","undefined","1","undefined","undefined","white","no","legacy","legacy","legacy","0","relative","undefined","undefined","22","NA","0","0","0","0","0","0","0","38","38","0","15","0","no","04/29/19 12:12:34","A simple template for the mouse-tracking paradigm","yes","Experiment-TF.osexp","C:\Users\Kristen\Documents\opPreviewExperiment-master\procedure","no","mono","no","24","no","black","no","yes","1050","legacy","22","15","C:/Users/Kristen/Documents/opPreviewExperiment-master/procedure/subject-23.csv","legacy","Kafkaesque Koffka","3.2.6","mult","0","a","NA","NA","a","a","9690","NA","NA","20079","9690","2","1250","legacy","large","1024","2","48000","-16","experiment","4_9_mult_true.jpg","23","odd","legacy","159893","NA","82456","NA","NA","2310","NA","2326","72765","159893","162119","22406","70196","2312","mousetracking operator preview effect","0","0","0","no","true","no","1680"
"negative","undefined","1","undefined","undefined","white","no","legacy","legacy","legacy","0","relative","undefined","undefined","23","NA","0","0","0","0","0","0","0","39","39","0","15","0","no","04/29/19 12:12:34","A simple template for the mouse-tracking paradigm","yes","Experiment-TF.osexp","C:\Users\Kristen\Documents\opPreviewExperiment-master\procedure","no","mono","no","24","no","black","no","yes","1050","legacy","23","15","C:/Users/Kristen/Documents/opPreviewExperiment-master/procedure/subject-23.csv","legacy","Kafkaesque Koffka","3.2.6","mult","0","a","NA","NA","a","a","9690","NA","NA","20079","9690","2","1169","legacy","small","1024","2","48000","-16","experiment","5_3_mult_true.jpg","23","odd","legacy","162144","NA","82456","NA","NA","2310","NA","2326","72765","162144","164453","22406","70196","2312","mousetracking operator preview effect","0","0","0","no","true","no","1680"
"neutral","undefined","1","undefined","undefined","white","no","legacy","legacy","legacy","0","relative","undefined","undefined","24","NA","0","0","0","0","0","0","0","40","40","0","15","0","no","04/29/19 12:12:34","A simple template for the mouse-tracking paradigm","yes","Experiment-TF.osexp","C:\Users\Kristen\Documents\opPreviewExperiment-master\procedure","no","mono","no","24","no","black","no","yes","1050","legacy","24","15","C:/Users/Kristen/Documents/opPreviewExperiment-master/procedure/subject-23.csv","legacy","Kafkaesque Koffka","3.2.6","add","0","l","NA","NA","a","a","9690","NA","NA","20079","9690","2","1299","legacy","small","1024","2","48000","-16","experiment","8_2_add_FNI.jpg","23","odd","legacy","164482","NA","82456","NA","NA","2310","NA","2326","72765","164482","166758","22406","70196","2312","mousetracking operator preview effect","0","0","0","no","false","no","1680"
"neutral","undefined","1","undefined","undefined","white","no","legacy","legacy","legacy","0","relative","undefined","undefined","25","NA","0","0","0","0","0","0","0","41","41","0","15","0","no","04/29/19 12:12:34","A simple template for the mouse-tracking paradigm","yes","Experiment-TF.osexp","C:\Users\Kristen\Documents\opPreviewExperiment-master\procedure","no","mono","no","24","no","black","no","yes","1050","legacy","25","15","C:/Users/Kristen/Documents/opPreviewExperiment-master/procedure/subject-23.csv","legacy","Kafkaesque Koffka","3.2.6","mult","0","a","NA","NA","a","a","9690","NA","NA","20079","9690","2","1276","legacy","small","1024","2","48000","-16","experiment","8_2_mult_true.jpg","23","odd","legacy","166780","NA","82456","NA","NA","2310","NA","2326","72765","166780","169021","22406","70196","2312","mousetracking operator preview effect","0","0","0","no","true","no","1680"
"negative","undefined","0","undefined","undefined","white","no","legacy","legacy","legacy","0","relative","undefined","undefined","26","NA","0","0","0","0","0","0","0","42","42","0","15","0","no","04/29/19 12:12:34","A simple template for the mouse-tracking paradigm","yes","Experiment-TF.osexp","C:\Users\Kristen\Documents\opPreviewExperiment-master\procedure","no","mono","no","24","no","black","no","yes","1050","legacy","26","15","C:/Users/Kristen/Documents/opPreviewExperiment-master/procedure/subject-23.csv","legacy","Kafkaesque Koffka","3.2.6","mult","0","a","NA","NA","a","a","9690","NA","NA","20079","9690","2","2627","legacy","small","1024","2","48000","-16","experiment","3_6_mult_FI.jpg","23","odd","legacy","169050","NA","82456","NA","NA","2310","NA","2326","72765","169050","173846","22406","70196","2312","mousetracking operator preview effect","0","0","0","no","false","no","1680"
"neutral","undefined","1","undefined","undefined","white","no","legacy","legacy","legacy","0","relative","undefined","undefined","27","NA","0","0","0","0","0","0","0","43","43","0","15","0","no","04/29/19 12:12:34","A simple template for the mouse-tracking paradigm","yes","Experiment-TF.osexp","C:\Users\Kristen\Documents\opPreviewExperiment-master\procedure","no","mono","no","24","no","black","no","yes","1050","legacy","27","15","C:/Users/Kristen/Documents/opPreviewExperiment-master/procedure/subject-23.csv","legacy","Kafkaesque Koffka","3.2.6","add","0","a","NA","NA","a","a","9690","NA","NA","20079","9690","2","1598","legacy","small","1024","2","48000","-16","experiment","3_6_add_true.jpg","23","odd","legacy","173889","NA","82456","NA","NA","2310","NA","2326","72765","173890","176473","22406","70196","2312","mousetracking operator preview effect","0","0","0","no","true","no","1680"
"negative","undefined","1","undefined","undefined","white","no","legacy","legacy","legacy","0","relative","undefined","undefined","28","NA","0","0","0","0","0","0","0","44","44","0","15","0","no","04/29/19 12:12:34","A simple template for the mouse-tracking paradigm","yes","Experiment-TF.osexp","C:\Users\Kristen\Documents\opPreviewExperiment-master\procedure","no","mono","no","24","no","black","no","yes","1050","legacy","28","15","C:/Users/Kristen/Documents/opPreviewExperiment-master/procedure/subject-23.csv","legacy","Kafkaesque Koffka","3.2.6","mult","0","l","NA","NA","a","a","9690","NA","NA","20079","9690","2","943","legacy","large","1024","2","48000","-16","experiment","9_7_mult_FI.jpg","23","odd","legacy","176500","NA","82456","NA","NA","2310","NA","2326","72765","176500","178589","22406","70196","2312","mousetracking operator preview effect","0","0","0","no","false","no","1680"
"negative","undefined","1","undefined","undefined","white","no","legacy","legacy","legacy","0","relative","undefined","undefined","29","NA","0","0","0","0","0","0","0","45","45","0","15","0","no","04/29/19 12:12:34","A simple template for the mouse-tracking paradigm","yes","Experiment-TF.osexp","C:\Users\Kristen\Documents\opPreviewExperiment-master\procedure","no","mono","no","24","no","black","no","yes","1050","legacy","29","15","C:/Users/Kristen/Documents/opPreviewExperiment-master/procedure/subject-23.csv","legacy","Kafkaesque Koffka","3.2.6","mult","0","a","NA","NA","a","a","9690","NA","NA","20079","9690","2","1211","legacy","large","1024","2","48000","-16","experiment","4_9_mult_true.jpg","23","odd","legacy","178614","NA","82456","NA","NA","2310","NA","2326","72765","178614","180981","22406","70196","2312","mousetracking operator preview effect","0","0","0","no","true","no","1680"
"neutral","undefined","1","undefined","undefined","white","no","legacy","legacy","legacy","0","relative","undefined","undefined","30","NA","0","0","0","0","0","0","0","46","46","0","15","0","no","04/29/19 12:12:34","A simple template for the mouse-tracking paradigm","yes","Experiment-TF.osexp","C:\Users\Kristen\Documents\opPreviewExperiment-master\procedure","no","mono","no","24","no","black","no","yes","1050","legacy","30","15","C:/Users/Kristen/Documents/opPreviewExperiment-master/procedure/subject-23.csv","legacy","Kafkaesque Koffka","3.2.6","add","0","l","NA","NA","a","a","9690","NA","NA","20079","9690","2","1147","legacy","small","1024","2","48000","-16","experiment","5_3_add_FI.jpg","23","odd","legacy","181002","NA","82456","NA","NA","2310","NA","2326","72765","181002","183125","22406","70196","2312","mousetracking operator preview effect","0","0","0","no","false","no","1680"
"neutral","undefined","1","undefined","undefined","white","no","legacy","legacy","legacy","0","relative","undefined","undefined","31","NA","0","0","0","0","0","0","0","47","47","0","15","0","no","04/29/19 12:12:34","A simple template for the mouse-tracking paradigm","yes","Experiment-TF.osexp","C:\Users\Kristen\Documents\opPreviewExperiment-master\procedure","no","mono","no","24","no","black","no","yes","1050","legacy","31","15","C:/Users/Kristen/Documents/opPreviewExperiment-master/procedure/subject-23.csv","legacy","Kafkaesque Koffka","3.2.6","add","0","a","NA","NA","a","a","9690","NA","NA","20079","9690","2","1723","legacy","small","1024","2","48000","-16","experiment","8_2_add_true.jpg","23","odd","legacy","183155","NA","82456","NA","NA","2310","NA","2326","72765","183155","185861","22406","70196","2312","mousetracking operator preview effect","0","0","0","no","true","no","1680"
"neutral","undefined","1","undefined","undefined","white","no","legacy","legacy","legacy","0","relative","undefined","undefined","32","NA","0","0","0","0","0","0","0","48","48","0","15","0","no","04/29/19 12:12:34","A simple template for the mouse-tracking paradigm","yes","Experiment-TF.osexp","C:\Users\Kristen\Documents\opPreviewExperiment-master\procedure","no","mono","no","24","no","black","no","yes","1050","legacy","32","15","C:/Users/Kristen/Documents/opPreviewExperiment-master/procedure/subject-23.csv","legacy","Kafkaesque Koffka","3.2.6","mult","0","a","NA","NA","a","a","9690","NA","NA","20079","9690","2","954","legacy","small","1024","2","48000","-16","experiment","5_3_mult_true.jpg","23","odd","legacy","185882","NA","82456","NA","NA","2310","NA","2326","72765","185882","187814","22406","70196","2312","mousetracking operator preview effect","0","0","0","no","true","no","1680"
"negative","undefined","1","undefined","undefined","white","no","legacy","legacy","legacy","0","relative","undefined","undefined","33","NA","0","0","0","0","0","0","0","49","49","0","15","0","no","04/29/19 12:12:34","A simple template for the mouse-tracking paradigm","yes","Experiment-TF.osexp","C:\Users\Kristen\Documents\opPreviewExperiment-master\procedure","no","mono","no","24","no","black","no","yes","1050","legacy","33","15","C:/Users/Kristen/Documents/opPreviewExperiment-master/procedure/subject-23.csv","legacy","Kafkaesque Koffka","3.2.6","add","0","l","NA","NA","a","a","9690","NA","NA","20079","9690","2","2899","legacy","small","1024","2","48000","-16","experiment","5_3_add_FI.jpg","23","odd","legacy","187844","NA","82456","NA","NA","2310","NA","2326","72765","187844","191897","22406","70196","2312","mousetracking operator preview effect","0","0","0","no","false","no","1680"
"negative","undefined","1","undefined","undefined","white","no","legacy","legacy","legacy","0","relative","undefined","undefined","34","NA","0","0","0","0","0","0","0","50","50","0","15","0","no","04/29/19 12:12:34","A simple template for the mouse-tracking paradigm","yes","Experiment-TF.osexp","C:\Users\Kristen\Documents\opPreviewExperiment-master\procedure","no","mono","no","24","no","black","no","yes","1050","legacy","34","15","C:/Users/Kristen/Documents/opPreviewExperiment-master/procedure/subject-23.csv","legacy","Kafkaesque Koffka","3.2.6","mult","0","l","NA","NA","a","a","9690","NA","NA","20079","9690","2","1446","legacy","small","1024","2","48000","-16","experiment","2_7_mult_FI.jpg","23","odd","legacy","191918","NA","82456","NA","NA","2310","NA","2326","72765","191918","194511","22406","70196","2312","mousetracking operator preview effect","0","0","0","no","false","no","1680"
"negative","undefined","1","undefined","undefined","white","no","legacy","legacy","legacy","0","relative","undefined","undefined","35","NA","0","0","0","0","0","0","0","51","51","0","15","0","no","04/29/19 12:12:34","A simple template for the mouse-tracking paradigm","yes","Experiment-TF.osexp","C:\Users\Kristen\Documents\opPreviewExperiment-master\procedure","no","mono","no","24","no","black","no","yes","1050","legacy","35","15","C:/Users/Kristen/Documents/opPreviewExperiment-master/procedure/subject-23.csv","legacy","Kafkaesque Koffka","3.2.6","mult","0","a","NA","NA","a","a","9690","NA","NA","20079","9690","2","2152","legacy","large","1024","2","48000","-16","experiment","6_8_mult_true.jpg","23","odd","legacy","194542","NA","82456","NA","NA","2310","NA","2326","72765","194542","197856","22406","70196","2312","mousetracking operator preview effect","0","0","0","no","true","no","1680"
"negative","undefined","1","undefined","undefined","white","no","legacy","legacy","legacy","0","relative","undefined","undefined","36","NA","0","0","0","0","0","0","0","52","52","0","15","0","no","04/29/19 12:12:34","A simple template for the mouse-tracking paradigm","yes","Experiment-TF.osexp","C:\Users\Kristen\Documents\opPreviewExperiment-master\procedure","no","mono","no","24","no","black","no","yes","1050","legacy","36","15","C:/Users/Kristen/Documents/opPreviewExperiment-master/procedure/subject-23.csv","legacy","Kafkaesque Koffka","3.2.6","add","0","l","NA","NA","a","a","9690","NA","NA","20079","9690","2","1273","legacy","small","1024","2","48000","-16","experiment","2_7_add_FI.jpg","23","odd","legacy","197876","NA","82456","NA","NA","2310","NA","2326","72765","197876","200301","22406","70196","2312","mousetracking operator preview effect","0","0","0","no","false","no","1680"
"negative","undefined","1","undefined","undefined","white","no","legacy","legacy","legacy","0","relative","undefined","undefined","37","NA","0","0","0","0","0","0","0","53","53","0","15","0","no","04/29/19 12:12:34","A simple template for the mouse-tracking paradigm","yes","Experiment-TF.osexp","C:\Users\Kristen\Documents\opPreviewExperiment-master\procedure","no","mono","no","24","no","black","no","yes","1050","legacy","37","15","C:/Users/Kristen/Documents/opPreviewExperiment-master/procedure/subject-23.csv","legacy","Kafkaesque Koffka","3.2.6","mult","0","a","NA","NA","a","a","9690","NA","NA","20079","9690","2","2279","legacy","small","1024","2","48000","-16","experiment","3_6_mult_true.jpg","23","odd","legacy","200325","NA","82456","NA","NA","2310","NA","2326","72765","200325","203751","22406","70196","2312","mousetracking operator preview effect","0","0","0","no","true","no","1680"
"negative","undefined","1","undefined","undefined","white","no","legacy","legacy","legacy","0","relative","undefined","undefined","38","NA","0","0","0","0","0","0","0","54","54","0","15","0","no","04/29/19 12:12:34","A simple template for the mouse-tracking paradigm","yes","Experiment-TF.osexp","C:\Users\Kristen\Documents\opPreviewExperiment-master\procedure","no","mono","no","24","no","black","no","yes","1050","legacy","38","15","C:/Users/Kristen/Documents/opPreviewExperiment-master/procedure/subject-23.csv","legacy","Kafkaesque Koffka","3.2.6","add","0","l","NA","NA","a","a","9690","NA","NA","20079","9690","2","2127","legacy","large","1024","2","48000","-16","experiment","6_8_add_FI.jpg","23","odd","legacy","203766","NA","82456","NA","NA","2310","NA","2326","72765","203766","207039","22406","70196","2312","mousetracking operator preview effect","0","0","0","no","false","no","1680"
"negative","undefined","1","undefined","undefined","white","no","legacy","legacy","legacy","0","relative","undefined","undefined","39","NA","0","0","0","0","0","0","0","55","55","0","15","0","no","04/29/19 12:12:34","A simple template for the mouse-tracking paradigm","yes","Experiment-TF.osexp","C:\Users\Kristen\Documents\opPreviewExperiment-master\procedure","no","mono","no","24","no","black","no","yes","1050","legacy","39","15","C:/Users/Kristen/Documents/opPreviewExperiment-master/procedure/subject-23.csv","legacy","Kafkaesque Koffka","3.2.6","add","0","l","NA","NA","a","a","9690","NA","NA","20079","9690","2","1502","legacy","small","1024","2","48000","-16","experiment","8_2_add_FNI.jpg","23","odd","legacy","207060","NA","82456","NA","NA","2310","NA","2326","72765","207060","209704","22406","70196","2312","mousetracking operator preview effect","0","0","0","no","false","no","1680"
"neutral","undefined","1","undefined","undefined","white","no","legacy","legacy","legacy","0","relative","undefined","undefined","40","NA","0","0","0","0","0","0","0","56","56","0","15","0","no","04/29/19 12:12:34","A simple template for the mouse-tracking paradigm","yes","Experiment-TF.osexp","C:\Users\Kristen\Documents\opPreviewExperiment-master\procedure","no","mono","no","24","no","black","no","yes","1050","legacy","40","15","C:/Users/Kristen/Documents/opPreviewExperiment-master/procedure/subject-23.csv","legacy","Kafkaesque Koffka","3.2.6","mult","0","l","NA","NA","a","a","9690","NA","NA","20079","9690","2","1075","legacy","small","1024","2","48000","-16","experiment","8_2_mult_FNI.jpg","23","odd","legacy","209718","NA","82456","NA","NA","2310","NA","2326","72765","209718","211773","22406","70196","2312","mousetracking operator preview effect","0","0","0","no","false","no","1680"
"negative","undefined","1","undefined","undefined","white","no","legacy","legacy","legacy","0","relative","undefined","undefined","41","NA","0","0","0","0","0","0","0","57","57","0","15","0","no","04/29/19 12:12:34","A simple template for the mouse-tracking paradigm","yes","Experiment-TF.osexp","C:\Users\Kristen\Documents\opPreviewExperiment-master\procedure","no","mono","no","24","no","black","no","yes","1050","legacy","41","15","C:/Users/Kristen/Documents/opPreviewExperiment-master/procedure/subject-23.csv","legacy","Kafkaesque Koffka","3.2.6","mult","0","a","NA","NA","a","a","9690","NA","NA","20079","9690","2","1337","legacy","small","1024","2","48000","-16","experiment","5_3_mult_true.jpg","23","odd","legacy","211803","NA","82456","NA","NA","2310","NA","2326","72765","211803","214289","22406","70196","2312","mousetracking operator preview effect","0","0","0","no","true","no","1680"
"negative","undefined","1","undefined","undefined","white","no","legacy","legacy","legacy","0","relative","undefined","undefined","42","NA","0","0","0","0","0","0","0","58","58","0","15","0","no","04/29/19 12:12:34","A simple template for the mouse-tracking paradigm","yes","Experiment-TF.osexp","C:\Users\Kristen\Documents\opPreviewExperiment-master\procedure","no","mono","no","24","no","black","no","yes","1050","legacy","42","15","C:/Users/Kristen/Documents/opPreviewExperiment-master/procedure/subject-23.csv","legacy","Kafkaesque Koffka","3.2.6","add","0","l","NA","NA","a","a","9690","NA","NA","20079","9690","2","4633","legacy","large","1024","2","48000","-16","experiment","6_8_add_FNI.jpg","23","odd","legacy","214311","NA","82456","NA","NA","2310","NA","2326","72765","214311","220084","22406","70196","2312","mousetracking operator preview effect","0","0","0","no","false","no","1680"
"neutral","undefined","1","undefined","undefined","white","no","legacy","legacy","legacy","0","relative","undefined","undefined","43","NA","0","0","0","0","0","0","0","59","59","0","15","0","no","04/29/19 12:12:34","A simple template for the mouse-tracking paradigm","yes","Experiment-TF.osexp","C:\Users\Kristen\Documents\opPreviewExperiment-master\procedure","no","mono","no","24","no","black","no","yes","1050","legacy","43","15","C:/Users/Kristen/Documents/opPreviewExperiment-master/procedure/subject-23.csv","legacy","Kafkaesque Koffka","3.2.6","add","0","a","NA","NA","a","a","9690","NA","NA","20079","9690","2","1500","legacy","small","1024","2","48000","-16","experiment","2_7_add_true.jpg","23","odd","legacy","220107","NA","82456","NA","NA","2310","NA","2326","72765","220107","222577","22406","70196","2312","mousetracking operator preview effect","0","0","0","no","true","no","1680"
"negative","undefined","1","undefined","undefined","white","no","legacy","legacy","legacy","0","relative","undefined","undefined","44","NA","0","0","0","0","0","0","0","60","60","0","15","0","no","04/29/19 12:12:34","A simple template for the mouse-tracking paradigm","yes","Experiment-TF.osexp","C:\Users\Kristen\Documents\opPreviewExperiment-master\procedure","no","mono","no","24","no","black","no","yes","1050","legacy","44","15","C:/Users/Kristen/Documents/opPreviewExperiment-master/procedure/subject-23.csv","legacy","Kafkaesque Koffka","3.2.6","mult","0","l","NA","NA","a","a","9690","NA","NA","20079","9690","2","773","legacy","small","1024","2","48000","-16","experiment","5_3_mult_FI.jpg","23","odd","legacy","222599","NA","82456","NA","NA","2310","NA","2326","72765","222599","224513","22406","70196","2312","mousetracking operator preview effect","0","0","0","no","false","no","1680"
"neutral","undefined","1","undefined","undefined","white","no","legacy","legacy","legacy","0","relative","undefined","undefined","45","NA","0","0","0","0","0","0","0","61","61","0","15","0","no","04/29/19 12:12:34","A simple template for the mouse-tracking paradigm","yes","Experiment-TF.osexp","C:\Users\Kristen\Documents\opPreviewExperiment-master\procedure","no","mono","no","24","no","black","no","yes","1050","legacy","45","15","C:/Users/Kristen/Documents/opPreviewExperiment-master/procedure/subject-23.csv","legacy","Kafkaesque Koffka","3.2.6","mult","0","l","NA","NA","a","a","9690","NA","NA","20079","9690","2","1406","legacy","small","1024","2","48000","-16","experiment","2_7_mult_FNI.jpg","23","odd","legacy","224543","NA","82456","NA","NA","2310","NA","2326","72765","224543","226925","22406","70196","2312","mousetracking operator preview effect","0","0","0","no","false","no","1680"
"neutral","undefined","1","undefined","undefined","white","no","legacy","legacy","legacy","0","relative","undefined","undefined","46","NA","0","0","0","0","0","0","0","62","62","0","15","0","no","04/29/19 12:12:34","A simple template for the mouse-tracking paradigm","yes","Experiment-TF.osexp","C:\Users\Kristen\Documents\opPreviewExperiment-master\procedure","no","mono","no","24","no","black","no","yes","1050","legacy","46","15","C:/Users/Kristen/Documents/opPreviewExperiment-master/procedure/subject-23.csv","legacy","Kafkaesque Koffka","3.2.6","mult","0","a","NA","NA","a","a","9690","NA","NA","20079","9690","2","2059","legacy","large","1024","2","48000","-16","experiment","6_8_mult_true.jpg","23","odd","legacy","226946","NA","82456","NA","NA","2310","NA","2326","72765","226946","229981","22406","70196","2312","mousetracking operator preview effect","0","0","0","no","true","no","1680"
"neutral","undefined","1","undefined","undefined","white","no","legacy","legacy","legacy","0","relative","undefined","undefined","47","NA","0","0","0","0","0","0","0","63","63","0","15","0","no","04/29/19 12:12:34","A simple template for the mouse-tracking paradigm","yes","Experiment-TF.osexp","C:\Users\Kristen\Documents\opPreviewExperiment-master\procedure","no","mono","no","24","no","black","no","yes","1050","legacy","47","15","C:/Users/Kristen/Documents/opPreviewExperiment-master/procedure/subject-23.csv","legacy","Kafkaesque Koffka","3.2.6","add","0","l","NA","NA","a","a","9690","NA","NA","20079","9690","2","1125","legacy","small","1024","2","48000","-16","experiment","2_7_add_FI.jpg","23","odd","legacy","229995","NA","82456","NA","NA","2310","NA","2326","72765","229995","232097","22406","70196","2312","mousetracking operator preview effect","0","0","0","no","false","no","1680"
"neutral","undefined","1","undefined","undefined","white","no","legacy","legacy","legacy","0","relative","undefined","undefined","48","NA","0","0","0","0","0","0","0","64","64","0","15","0","no","04/29/19 12:12:34","A simple template for the mouse-tracking paradigm","yes","Experiment-TF.osexp","C:\Users\Kristen\Documents\opPreviewExperiment-master\procedure","no","mono","no","24","no","black","no","yes","1050","legacy","48","15","C:/Users/Kristen/Documents/opPreviewExperiment-master/procedure/subject-23.csv","legacy","Kafkaesque Koffka","3.2.6","add","0","l","NA","NA","a","a","9690","NA","NA","20079","9690","2","1452","legacy","large","1024","2","48000","-16","experiment","8_4_add_FI.jpg","23","odd","legacy","232125","NA","82456","NA","NA","2310","NA","2326","72765","232125","234552","22406","70196","2312","mousetracking operator preview effect","0","0","0","no","false","no","1680"
"neutral","undefined","1","undefined","undefined","white","no","legacy","legacy","legacy","0","relative","undefined","undefined","49","NA","0","0","0","0","0","0","0","65","65","0","15","0","no","04/29/19 12:12:34","A simple template for the mouse-tracking paradigm","yes","Experiment-TF.osexp","C:\Users\Kristen\Documents\opPreviewExperiment-master\procedure","no","mono","no","24","no","black","no","yes","1050","legacy","49","15","C:/Users/Kristen/Documents/opPreviewExperiment-master/procedure/subject-23.csv","legacy","Kafkaesque Koffka","3.2.6","add","0","a","NA","NA","a","a","9690","NA","NA","20079","9690","2","2394","legacy","small","1024","2","48000","-16","experiment","3_6_add_true.jpg","23","odd","legacy","234576","NA","82456","NA","NA","2310","NA","2326","72765","234576","237957","22406","70196","2312","mousetracking operator preview effect","0","0","0","no","true","no","1680"
"negative","undefined","1","undefined","undefined","white","no","legacy","legacy","legacy","0","relative","undefined","undefined","50","NA","0","0","0","0","0","0","0","66","66","0","15","0","no","04/29/19 12:12:34","A simple template for the mouse-tracking paradigm","yes","Experiment-TF.osexp","C:\Users\Kristen\Documents\opPreviewExperiment-master\procedure","no","mono","no","24","no","black","no","yes","1050","legacy","50","15","C:/Users/Kristen/Documents/opPreviewExperiment-master/procedure/subject-23.csv","legacy","Kafkaesque Koffka","3.2.6","mult","0","l","NA","NA","a","a","9690","NA","NA","20079","9690","2","1607","legacy","large","1024","2","48000","-16","experiment","8_4_mult_FNI.jpg","23","odd","legacy","237980","NA","82456","NA","NA","2310","NA","2326","72765","237980","240731","22406","70196","2312","mousetracking operator preview effect","0","0","0","no","false","no","1680"
"neutral","undefined","1","undefined","undefined","white","no","legacy","legacy","legacy","0","relative","undefined","undefined","51","NA","0","0","0","0","0","0","0","67","67","0","15","0","no","04/29/19 12:12:34","A simple template for the mouse-tracking paradigm","yes","Experiment-TF.osexp","C:\Users\Kristen\Documents\opPreviewExperiment-master\procedure","no","mono","no","24","no","black","no","yes","1050","legacy","51","15","C:/Users/Kristen/Documents/opPreviewExperiment-master/procedure/subject-23.csv","legacy","Kafkaesque Koffka","3.2.6","add","0","l","NA","NA","a","a","9690","NA","NA","20079","9690","2","2012","legacy","small","1024","2","48000","-16","experiment","3_6_add_FNI.jpg","23","odd","legacy","240748","NA","82456","NA","NA","2310","NA","2326","72765","240748","243737","22406","70196","2312","mousetracking operator preview effect","0","0","0","no","false","no","1680"
"negative","undefined","1","undefined","undefined","white","no","legacy","legacy","legacy","0","relative","undefined","undefined","52","NA","0","0","0","0","0","0","0","68","68","0","15","0","no","04/29/19 12:12:34","A simple template for the mouse-tracking paradigm","yes","Experiment-TF.osexp","C:\Users\Kristen\Documents\opPreviewExperiment-master\procedure","no","mono","no","24","no","black","no","yes","1050","legacy","52","15","C:/Users/Kristen/Documents/opPreviewExperiment-master/procedure/subject-23.csv","legacy","Kafkaesque Koffka","3.2.6","add","0","l","NA","NA","a","a","9690","NA","NA","20079","9690","2","1029","legacy","large","1024","2","48000","-16","experiment","8_4_add_FI.jpg","23","odd","legacy","243768","NA","82456","NA","NA","2310","NA","2326","72765","243768","245947","22406","70196","2312","mousetracking operator preview effect","0","0","0","no","false","no","1680"
"negative","undefined","1","undefined","undefined","white","no","legacy","legacy","legacy","0","relative","undefined","undefined","53","NA","0","0","0","0","0","0","0","69","69","0","15","0","no","04/29/19 12:12:34","A simple template for the mouse-tracking paradigm","yes","Experiment-TF.osexp","C:\Users\Kristen\Documents\opPreviewExperiment-master\procedure","no","mono","no","24","no","black","no","yes","1050","legacy","53","15","C:/Users/Kristen/Documents/opPreviewExperiment-master/procedure/subject-23.csv","legacy","Kafkaesque Koffka","3.2.6","mult","0","a","NA","NA","a","a","9690","NA","NA","20079","9690","2","1245","legacy","large","1024","2","48000","-16","experiment","4_9_mult_true.jpg","23","odd","legacy","245977","NA","82456","NA","NA","2310","NA","2326","72765","245977","248370","22406","70196","2312","mousetracking operator preview effect","0","0","0","no","true","no","1680"
"neutral","undefined","1","undefined","undefined","white","no","legacy","legacy","legacy","0","relative","undefined","undefined","54","NA","0","0","0","0","0","0","0","70","70","0","15","0","no","04/29/19 12:12:34","A simple template for the mouse-tracking paradigm","yes","Experiment-TF.osexp","C:\Users\Kristen\Documents\opPreviewExperiment-master\procedure","no","mono","no","24","no","black","no","yes","1050","legacy","54","15","C:/Users/Kristen/Documents/opPreviewExperiment-master/procedure/subject-23.csv","legacy","Kafkaesque Koffka","3.2.6","mult","0","a","NA","NA","a","a","9690","NA","NA","20079","9690","2","1134","legacy","small","1024","2","48000","-16","experiment","2_7_mult_true.jpg","23","odd","legacy","248391","NA","82456","NA","NA","2310","NA","2326","72765","248391","250503","22406","70196","2312","mousetracking operator preview effect","0","0","0","no","true","no","1680"
"negative","undefined","1","undefined","undefined","white","no","legacy","legacy","legacy","0","relative","undefined","undefined","55","NA","0","0","0","0","0","0","0","71","71","0","15","0","no","04/29/19 12:12:34","A simple template for the mouse-tracking paradigm","yes","Experiment-TF.osexp","C:\Users\Kristen\Documents\opPreviewExperiment-master\procedure","no","mono","no","24","no","black","no","yes","1050","legacy","55","15","C:/Users/Kristen/Documents/opPreviewExperiment-master/procedure/subject-23.csv","legacy","Kafkaesque Koffka","3.2.6","add","0","a","NA","NA","a","a","9690","NA","NA","20079","9690","2","1312","legacy","small","1024","2","48000","-16","experiment","8_2_add_true.jpg","23","odd","legacy","250525","NA","82456","NA","NA","2310","NA","2326","72765","250525","252995","22406","70196","2312","mousetracking operator preview effect","0","0","0","no","true","no","1680"
"negative","undefined","1","undefined","undefined","white","no","legacy","legacy","legacy","0","relative","undefined","undefined","56","NA","0","0","0","0","0","0","0","72","72","0","15","0","no","04/29/19 12:12:34","A simple template for the mouse-tracking paradigm","yes","Experiment-TF.osexp","C:\Users\Kristen\Documents\opPreviewExperiment-master\procedure","no","mono","no","24","no","black","no","yes","1050","legacy","56","15","C:/Users/Kristen/Documents/opPreviewExperiment-master/procedure/subject-23.csv","legacy","Kafkaesque Koffka","3.2.6","add","0","l","NA","NA","a","a","9690","NA","NA","20079","9690","2","1559","legacy","small","1024","2","48000","-16","experiment","2_7_add_FNI.jpg","23","odd","legacy","253015","NA","82456","NA","NA","2310","NA","2326","72765","253015","255725","22406","70196","2312","mousetracking operator preview effect","0","0","0","no","false","no","1680"
"neutral","undefined","1","undefined","undefined","white","no","legacy","legacy","legacy","0","relative","undefined","undefined","57","NA","0","0","0","0","0","0","0","73","73","0","15","0","no","04/29/19 12:12:34","A simple template for the mouse-tracking paradigm","yes","Experiment-TF.osexp","C:\Users\Kristen\Documents\opPreviewExperiment-master\procedure","no","mono","no","24","no","black","no","yes","1050","legacy","57","15","C:/Users/Kristen/Documents/opPreviewExperiment-master/procedure/subject-23.csv","legacy","Kafkaesque Koffka","3.2.6","add","0","a","NA","NA","a","a","9690","NA","NA","20079","9690","2","1227","legacy","small","1024","2","48000","-16","experiment","2_7_add_true.jpg","23","odd","legacy","255753","NA","82456","NA","NA","2310","NA","2326","72765","255753","257960","22406","70196","2312","mousetracking operator preview effect","0","0","0","no","true","no","1680"
"neutral","undefined","1","undefined","undefined","white","no","legacy","legacy","legacy","0","relative","undefined","undefined","58","NA","0","0","0","0","0","0","0","74","74","0","15","0","no","04/29/19 12:12:34","A simple template for the mouse-tracking paradigm","yes","Experiment-TF.osexp","C:\Users\Kristen\Documents\opPreviewExperiment-master\procedure","no","mono","no","24","no","black","no","yes","1050","legacy","58","15","C:/Users/Kristen/Documents/opPreviewExperiment-master/procedure/subject-23.csv","legacy","Kafkaesque Koffka","3.2.6","add","0","a","NA","NA","a","a","9690","NA","NA","20079","9690","2","2041","legacy","large","1024","2","48000","-16","experiment","8_4_add_true.jpg","23","odd","legacy","257981","NA","82456","NA","NA","2310","NA","2326","72765","257981","261000","22406","70196","2312","mousetracking operator preview effect","0","0","0","no","true","no","1680"
"neutral","undefined","1","undefined","undefined","white","no","legacy","legacy","legacy","0","relative","undefined","undefined","59","NA","0","0","0","0","0","0","0","75","75","0","15","0","no","04/29/19 12:12:34","A simple template for the mouse-tracking paradigm","yes","Experiment-TF.osexp","C:\Users\Kristen\Documents\opPreviewExperiment-master\procedure","no","mono","no","24","no","black","no","yes","1050","legacy","59","15","C:/Users/Kristen/Documents/opPreviewExperiment-master/procedure/subject-23.csv","legacy","Kafkaesque Koffka","3.2.6","mult","0","l","NA","NA","a","a","9690","NA","NA","20079","9690","2","1094","legacy","small","1024","2","48000","-16","experiment","5_3_mult_FNI.jpg","23","odd","legacy","261021","NA","82456","NA","NA","2310","NA","2326","72765","261021","263090","22406","70196","2312","mousetracking operator preview effect","0","0","0","no","false","no","1680"
"negative","undefined","1","undefined","undefined","white","no","legacy","legacy","legacy","0","relative","undefined","undefined","60","NA","0","0","0","0","0","0","0","76","76","0","15","0","no","04/29/19 12:12:34","A simple template for the mouse-tracking paradigm","yes","Experiment-TF.osexp","C:\Users\Kristen\Documents\opPreviewExperiment-master\procedure","no","mono","no","24","no","black","no","yes","1050","legacy","60","15","C:/Users/Kristen/Documents/opPreviewExperiment-master/procedure/subject-23.csv","legacy","Kafkaesque Koffka","3.2.6","add","0","l","NA","NA","a","a","9690","NA","NA","20079","9690","2","1093","legacy","small","1024","2","48000","-16","experiment","3_6_add_FI.jpg","23","odd","legacy","263111","NA","82456","NA","NA","2310","NA","2326","72765","263111","265353","22406","70196","2312","mousetracking operator preview effect","0","0","0","no","false","no","1680"
"neutral","undefined","1","undefined","undefined","white","no","legacy","legacy","legacy","0","relative","undefined","undefined","61","NA","0","0","0","0","0","0","0","77","77","0","15","0","no","04/29/19 12:12:34","A simple template for the mouse-tracking paradigm","yes","Experiment-TF.osexp","C:\Users\Kristen\Documents\opPreviewExperiment-master\procedure","no","mono","no","24","no","black","no","yes","1050","legacy","61","15","C:/Users/Kristen/Documents/opPreviewExperiment-master/procedure/subject-23.csv","legacy","Kafkaesque Koffka","3.2.6","add","0","l","NA","NA","a","a","9690","NA","NA","20079","9690","2","1095","legacy","large","1024","2","48000","-16","experiment","9_7_add_FI.jpg","23","odd","legacy","265374","NA","82456","NA","NA","2310","NA","2326","72765","265374","267450","22406","70196","2312","mousetracking operator preview effect","0","0","0","no","false","no","1680"
"neutral","undefined","1","undefined","undefined","white","no","legacy","legacy","legacy","0","relative","undefined","undefined","62","NA","0","0","0","0","0","0","0","78","78","0","15","0","no","04/29/19 12:12:34","A simple template for the mouse-tracking paradigm","yes","Experiment-TF.osexp","C:\Users\Kristen\Documents\opPreviewExperiment-master\procedure","no","mono","no","24","no","black","no","yes","1050","legacy","62","15","C:/Users/Kristen/Documents/opPreviewExperiment-master/procedure/subject-23.csv","legacy","Kafkaesque Koffka","3.2.6","add","0","l","NA","NA","a","a","9690","NA","NA","20079","9690","2","4404","legacy","large","1024","2","48000","-16","experiment","6_8_add_FNI.jpg","23","odd","legacy","267474","NA","82456","NA","NA","2310","NA","2326","72765","267474","272854","22406","70196","2312","mousetracking operator preview effect","0","0","0","no","false","no","1680"
"negative","undefined","1","undefined","undefined","white","no","legacy","legacy","legacy","0","relative","undefined","undefined","63","NA","0","0","0","0","0","0","0","79","79","0","15","0","no","04/29/19 12:12:34","A simple template for the mouse-tracking paradigm","yes","Experiment-TF.osexp","C:\Users\Kristen\Documents\opPreviewExperiment-master\procedure","no","mono","no","24","no","black","no","yes","1050","legacy","63","15","C:/Users/Kristen/Documents/opPreviewExperiment-master/procedure/subject-23.csv","legacy","Kafkaesque Koffka","3.2.6","mult","0","a","NA","NA","a","a","9690","NA","NA","20079","9690","2","5306","legacy","large","1024","2","48000","-16","experiment","8_4_mult_true.jpg","23","odd","legacy","272886","NA","82456","NA","NA","2310","NA","2326","72765","272886","279336","22406","70196","2312","mousetracking operator preview effect","0","0","0","no","true","no","1680"
"negative","undefined","1","undefined","undefined","white","no","legacy","legacy","legacy","0","relative","undefined","undefined","64","NA","0","0","0","0","0","0","0","80","80","0","15","0","no","04/29/19 12:12:34","A simple template for the mouse-tracking paradigm","yes","Experiment-TF.osexp","C:\Users\Kristen\Documents\opPreviewExperiment-master\procedure","no","mono","no","24","no","black","no","yes","1050","legacy","64","15","C:/Users/Kristen/Documents/opPreviewExperiment-master/procedure/subject-23.csv","legacy","Kafkaesque Koffka","3.2.6","mult","0","a","NA","NA","a","a","9690","NA","NA","20079","9690","2","1043","legacy","large","1024","2","48000","-16","experiment","6_8_mult_true.jpg","23","odd","legacy","279361","NA","82456","NA","NA","2310","NA","2326","72765","279361","281548","22406","70196","2312","mousetracking operator preview effect","0","0","0","no","true","no","1680"
"negative","undefined","1","undefined","undefined","white","no","legacy","legacy","legacy","0","relative","undefined","undefined","65","NA","0","0","0","0","0","0","0","81","81","0","15","0","no","04/29/19 12:12:34","A simple template for the mouse-tracking paradigm","yes","Experiment-TF.osexp","C:\Users\Kristen\Documents\opPreviewExperiment-master\procedure","no","mono","no","24","no","black","no","yes","1050","legacy","65","15","C:/Users/Kristen/Documents/opPreviewExperiment-master/procedure/subject-23.csv","legacy","Kafkaesque Koffka","3.2.6","mult","0","l","NA","NA","a","a","9690","NA","NA","20079","9690","2","953","legacy","small","1024","2","48000","-16","experiment","8_2_mult_FNI.jpg","23","odd","legacy","281576","NA","82456","NA","NA","2310","NA","2326","72765","281576","283679","22406","70196","2312","mousetracking operator preview effect","0","0","0","no","false","no","1680"
"negative","undefined","1","undefined","undefined","white","no","legacy","legacy","legacy","0","relative","undefined","undefined","66","NA","0","0","0","0","0","0","0","82","82","0","15","0","no","04/29/19 12:12:34","A simple template for the mouse-tracking paradigm","yes","Experiment-TF.osexp","C:\Users\Kristen\Documents\opPreviewExperiment-master\procedure","no","mono","no","24","no","black","no","yes","1050","legacy","66","15","C:/Users/Kristen/Documents/opPreviewExperiment-master/procedure/subject-23.csv","legacy","Kafkaesque Koffka","3.2.6","mult","0","l","NA","NA","a","a","9690","NA","NA","20079","9690","2","988","legacy","large","1024","2","48000","-16","experiment","4_9_mult_FI.jpg","23","odd","legacy","283707","NA","82456","NA","NA","2310","NA","2326","72765","283707","285840","22406","70196","2312","mousetracking operator preview effect","0","0","0","no","false","no","1680"
"neutral","undefined","1","undefined","undefined","white","no","legacy","legacy","legacy","0","relative","undefined","undefined","67","NA","0","0","0","0","0","0","0","83","83","0","15","0","no","04/29/19 12:12:34","A simple template for the mouse-tracking paradigm","yes","Experiment-TF.osexp","C:\Users\Kristen\Documents\opPreviewExperiment-master\procedure","no","mono","no","24","no","black","no","yes","1050","legacy","67","15","C:/Users/Kristen/Documents/opPreviewExperiment-master/procedure/subject-23.csv","legacy","Kafkaesque Koffka","3.2.6","add","0","a","NA","NA","a","a","9690","NA","NA","20079","9690","2","1548","legacy","small","1024","2","48000","-16","experiment","8_2_add_true.jpg","23","odd","legacy","285869","NA","82456","NA","NA","2310","NA","2326","72765","285869","288393","22406","70196","2312","mousetracking operator preview effect","0","0","0","no","true","no","1680"
"neutral","undefined","1","undefined","undefined","white","no","legacy","legacy","legacy","0","relative","undefined","undefined","68","NA","0","0","0","0","0","0","0","84","84","0","15","0","no","04/29/19 12:12:34","A simple template for the mouse-tracking paradigm","yes","Experiment-TF.osexp","C:\Users\Kristen\Documents\opPreviewExperiment-master\procedure","no","mono","no","24","no","black","no","yes","1050","legacy","68","15","C:/Users/Kristen/Documents/opPreviewExperiment-master/procedure/subject-23.csv","legacy","Kafkaesque Koffka","3.2.6","add","0","a","NA","NA","a","a","9690","NA","NA","20079","9690","2","3146","legacy","large","1024","2","48000","-16","experiment","9_7_add_true.jpg","23","odd","legacy","288414","NA","82456","NA","NA","2310","NA","2326","72765","288414","292541","22406","70196","2312","mousetracking operator preview effect","0","0","0","no","true","no","1680"
"neutral","undefined","1","undefined","undefined","white","no","legacy","legacy","legacy","0","relative","undefined","undefined","69","NA","0","0","0","0","0","0","0","85","85","0","15","0","no","04/29/19 12:12:34","A simple template for the mouse-tracking paradigm","yes","Experiment-TF.osexp","C:\Users\Kristen\Documents\opPreviewExperiment-master\procedure","no","mono","no","24","no","black","no","yes","1050","legacy","69","15","C:/Users/Kristen/Documents/opPreviewExperiment-master/procedure/subject-23.csv","legacy","Kafkaesque Koffka","3.2.6","add","0","a","NA","NA","a","a","9690","NA","NA","20079","9690","2","3223","legacy","small","1024","2","48000","-16","experiment","5_3_add_true.jpg","23","odd","legacy","292563","NA","82456","NA","NA","2310","NA","2326","72765","292563","296759","22406","70196","2312","mousetracking operator preview effect","0","0","0","no","true","no","1680"
"negative","undefined","1","undefined","undefined","white","no","legacy","legacy","legacy","0","relative","undefined","undefined","70","NA","0","0","0","0","0","0","0","86","86","0","15","0","no","04/29/19 12:12:34","A simple template for the mouse-tracking paradigm","yes","Experiment-TF.osexp","C:\Users\Kristen\Documents\opPreviewExperiment-master\procedure","no","mono","no","24","no","black","no","yes","1050","legacy","70","15","C:/Users/Kristen/Documents/opPreviewExperiment-master/procedure/subject-23.csv","legacy","Kafkaesque Koffka","3.2.6","mult","0","a","NA","NA","a","a","9690","NA","NA","20079","9690","2","1506","legacy","small","1024","2","48000","-16","experiment","2_7_mult_true.jpg","23","odd","legacy","296779","NA","82456","NA","NA","2310","NA","2326","72765","296779","299434","22406","70196","2312","mousetracking operator preview effect","0","0","0","no","true","no","1680"
"neutral","undefined","1","undefined","undefined","white","no","legacy","legacy","legacy","0","relative","undefined","undefined","71","NA","0","0","0","0","0","0","0","87","87","0","15","0","no","04/29/19 12:12:34","A simple template for the mouse-tracking paradigm","yes","Experiment-TF.osexp","C:\Users\Kristen\Documents\opPreviewExperiment-master\procedure","no","mono","no","24","no","black","no","yes","1050","legacy","71","15","C:/Users/Kristen/Documents/opPreviewExperiment-master/procedure/subject-23.csv","legacy","Kafkaesque Koffka","3.2.6","mult","0","l","NA","NA","a","a","9690","NA","NA","20079","9690","2","1129","legacy","large","1024","2","48000","-16","experiment","6_8_mult_FI.jpg","23","odd","legacy","299456","NA","82456","NA","NA","2310","NA","2326","72765","299456","301550","22406","70196","2312","mousetracking operator preview effect","0","0","0","no","false","no","1680"
"neutral","undefined","1","undefined","undefined","white","no","legacy","legacy","legacy","0","relative","undefined","undefined","72","NA","0","0","0","0","0","0","0","88","88","0","15","0","no","04/29/19 12:12:34","A simple template for the mouse-tracking paradigm","yes","Experiment-TF.osexp","C:\Users\Kristen\Documents\opPreviewExperiment-master\procedure","no","mono","no","24","no","black","no","yes","1050","legacy","72","15","C:/Users/Kristen/Documents/opPreviewExperiment-master/procedure/subject-23.csv","legacy","Kafkaesque Koffka","3.2.6","mult","0","a","NA","NA","a","a","9690","NA","NA","20079","9690","2","1066","legacy","large","1024","2","48000","-16","experiment","8_4_mult_true.jpg","23","odd","legacy","301578","NA","82456","NA","NA","2310","NA","2326","72765","301578","303615","22406","70196","2312","mousetracking operator preview effect","0","0","0","no","true","no","1680"
"negative","undefined","1","undefined","undefined","white","no","legacy","legacy","legacy","0","relative","undefined","undefined","73","NA","0","0","0","0","0","0","0","89","89","0","15","0","no","04/29/19 12:12:34","A simple template for the mouse-tracking paradigm","yes","Experiment-TF.osexp","C:\Users\Kristen\Documents\opPreviewExperiment-master\procedure","no","mono","no","24","no","black","no","yes","1050","legacy","73","15","C:/Users/Kristen/Documents/opPreviewExperiment-master/procedure/subject-23.csv","legacy","Kafkaesque Koffka","3.2.6","mult","0","l","NA","NA","a","a","9690","NA","NA","20079","9690","2","1425","legacy","large","1024","2","48000","-16","experiment","8_4_mult_FI.jpg","23","odd","legacy","303629","NA","82456","NA","NA","2310","NA","2326","72765","303629","306192","22406","70196","2312","mousetracking operator preview effect","0","0","0","no","false","no","1680"
"neutral","undefined","1","undefined","undefined","white","no","legacy","legacy","legacy","0","relative","undefined","undefined","74","NA","0","0","0","0","0","0","0","90","90","0","15","0","no","04/29/19 12:12:34","A simple template for the mouse-tracking paradigm","yes","Experiment-TF.osexp","C:\Users\Kristen\Documents\opPreviewExperiment-master\procedure","no","mono","no","24","no","black","no","yes","1050","legacy","74","15","C:/Users/Kristen/Documents/opPreviewExperiment-master/procedure/subject-23.csv","legacy","Kafkaesque Koffka","3.2.6","mult","0","l","NA","NA","a","a","9690","NA","NA","20079","9690","2","1997","legacy","small","1024","2","48000","-16","experiment","5_3_mult_FI.jpg","23","odd","legacy","306205","NA","82456","NA","NA","2310","NA","2326","72765","306205","309180","22406","70196","2312","mousetracking operator preview effect","0","0","0","no","false","no","1680"
"neutral","undefined","1","undefined","undefined","white","no","legacy","legacy","legacy","0","relative","undefined","undefined","75","NA","0","0","0","0","0","0","0","91","91","0","15","0","no","04/29/19 12:12:34","A simple template for the mouse-tracking paradigm","yes","Experiment-TF.osexp","C:\Users\Kristen\Documents\opPreviewExperiment-master\procedure","no","mono","no","24","no","black","no","yes","1050","legacy","75","15","C:/Users/Kristen/Documents/opPreviewExperiment-master/procedure/subject-23.csv","legacy","Kafkaesque Koffka","3.2.6","mult","0","a","NA","NA","a","a","9690","NA","NA","20079","9690","2","994","legacy","small","1024","2","48000","-16","experiment","5_3_mult_true.jpg","23","odd","legacy","309203","NA","82456","NA","NA","2310","NA","2326","72765","309203","311172","22406","70196","2312","mousetracking operator preview effect","0","0","0","no","true","no","1680"
"negative","undefined","1","undefined","undefined","white","no","legacy","legacy","legacy","0","relative","undefined","undefined","76","NA","0","0","0","0","0","0","0","92","92","0","15","0","no","04/29/19 12:12:34","A simple template for the mouse-tracking paradigm","yes","Experiment-TF.osexp","C:\Users\Kristen\Documents\opPreviewExperiment-master\procedure","no","mono","no","24","no","black","no","yes","1050","legacy","76","15","C:/Users/Kristen/Documents/opPreviewExperiment-master/procedure/subject-23.csv","legacy","Kafkaesque Koffka","3.2.6","add","0","a","NA","NA","a","a","9690","NA","NA","20079","9690","2","5243","legacy","large","1024","2","48000","-16","experiment","9_7_add_true.jpg","23","odd","legacy","311201","NA","82456","NA","NA","2310","NA","2326","72765","311201","317584","22406","70196","2312","mousetracking operator preview effect","0","0","0","no","true","no","1680"
"neutral","undefined","1","undefined","undefined","white","no","legacy","legacy","legacy","0","relative","undefined","undefined","77","NA","0","0","0","0","0","0","0","93","93","0","15","0","no","04/29/19 12:12:34","A simple template for the mouse-tracking paradigm","yes","Experiment-TF.osexp","C:\Users\Kristen\Documents\opPreviewExperiment-master\procedure","no","mono","no","24","no","black","no","yes","1050","legacy","77","15","C:/Users/Kristen/Documents/opPreviewExperiment-master/procedure/subject-23.csv","legacy","Kafkaesque Koffka","3.2.6","add","0","a","NA","NA","a","a","9690","NA","NA","20079","9690","2","2921","legacy","large","1024","2","48000","-16","experiment","4_9_add_true.jpg","23","odd","legacy","317606","NA","82456","NA","NA","2310","NA","2326","72765","317606","321497","22406","70196","2312","mousetracking operator preview effect","0","0","0","no","true","no","1680"
"neutral","undefined","1","undefined","undefined","white","no","legacy","legacy","legacy","0","relative","undefined","undefined","78","NA","0","0","0","0","0","0","0","94","94","0","15","0","no","04/29/19 12:12:34","A simple template for the mouse-tracking paradigm","yes","Experiment-TF.osexp","C:\Users\Kristen\Documents\opPreviewExperiment-master\procedure","no","mono","no","24","no","black","no","yes","1050","legacy","78","15","C:/Users/Kristen/Documents/opPreviewExperiment-master/procedure/subject-23.csv","legacy","Kafkaesque Koffka","3.2.6","mult","0","l","NA","NA","a","a","9690","NA","NA","20079","9690","2","1868","legacy","small","1024","2","48000","-16","experiment","3_6_mult_FNI.jpg","23","odd","legacy","321519","NA","82456","NA","NA","2310","NA","2326","72765","321519","324364","22406","70196","2312","mousetracking operator preview effect","0","0","0","no","false","no","1680"
"negative","undefined","1","undefined","undefined","white","no","legacy","legacy","legacy","0","relative","undefined","undefined","79","NA","0","0","0","0","0","0","0","95","95","0","15","0","no","04/29/19 12:12:34","A simple template for the mouse-tracking paradigm","yes","Experiment-TF.osexp","C:\Users\Kristen\Documents\opPreviewExperiment-master\procedure","no","mono","no","24","no","black","no","yes","1050","legacy","79","15","C:/Users/Kristen/Documents/opPreviewExperiment-master/procedure/subject-23.csv","legacy","Kafkaesque Koffka","3.2.6","add","0","l","NA","NA","a","a","9690","NA","NA","20079","9690","2","1605","legacy","small","1024","2","48000","-16","experiment","3_6_add_FNI.jpg","23","odd","legacy","324386","NA","82456","NA","NA","2310","NA","2326","72765","324386","327135","22406","70196","2312","mousetracking operator preview effect","0","0","0","no","false","no","1680"
"negative","undefined","1","undefined","undefined","white","no","legacy","legacy","legacy","0","relative","undefined","undefined","80","NA","0","0","0","0","0","0","0","96","96","0","15","0","no","04/29/19 12:12:34","A simple template for the mouse-tracking paradigm","yes","Experiment-TF.osexp","C:\Users\Kristen\Documents\opPreviewExperiment-master\procedure","no","mono","no","24","no","black","no","yes","1050","legacy","80","15","C:/Users/Kristen/Documents/opPreviewExperiment-master/procedure/subject-23.csv","legacy","Kafkaesque Koffka","3.2.6","add","0","a","NA","NA","a","a","9690","NA","NA","20079","9690","2","2222","legacy","large","1024","2","48000","-16","experiment","4_9_add_true.jpg","23","odd","legacy","327164","NA","82456","NA","NA","2310","NA","2326","72765","327164","330540","22406","70196","2312","mousetracking operator preview effect","0","0","0","no","true","no","1680"
"neutral","undefined","0","undefined","undefined","white","no","legacy","legacy","legacy","0","relative","undefined","undefined","81","NA","0","0","0","0","0","0","0","97","97","0","15","0","no","04/29/19 12:12:34","A simple template for the mouse-tracking paradigm","yes","Experiment-TF.osexp","C:\Users\Kristen\Documents\opPreviewExperiment-master\procedure","no","mono","no","24","no","black","no","yes","1050","legacy","81","15","C:/Users/Kristen/Documents/opPreviewExperiment-master/procedure/subject-23.csv","legacy","Kafkaesque Koffka","3.2.6","mult","0","l","NA","NA","a","a","9690","NA","NA","20079","9690","2","1933","legacy","small","1024","2","48000","-16","experiment","3_6_mult_true.jpg","23","odd","legacy","330563","NA","82456","NA","NA","2310","NA","2326","72765","330563","334488","22406","70196","2312","mousetracking operator preview effect","0","0","0","no","true","no","1680"
"neutral","undefined","1","undefined","undefined","white","no","legacy","legacy","legacy","0","relative","undefined","undefined","82","NA","0","0","0","0","0","0","0","98","98","0","15","0","no","04/29/19 12:12:34","A simple template for the mouse-tracking paradigm","yes","Experiment-TF.osexp","C:\Users\Kristen\Documents\opPreviewExperiment-master\procedure","no","mono","no","24","no","black","no","yes","1050","legacy","82","15","C:/Users/Kristen/Documents/opPreviewExperiment-master/procedure/subject-23.csv","legacy","Kafkaesque Koffka","3.2.6","add","0","l","NA","NA","a","a","9690","NA","NA","20079","9690","2","977","legacy","small","1024","2","48000","-16","experiment","8_2_add_FI.jpg","23","odd","legacy","334532","NA","82456","NA","NA","2310","NA","2326","72765","334533","336492","22406","70196","2312","mousetracking operator preview effect","0","0","0","no","false","no","1680"
"neutral","undefined","1","undefined","undefined","white","no","legacy","legacy","legacy","0","relative","undefined","undefined","83","NA","0","0","0","0","0","0","0","99","99","0","15","0","no","04/29/19 12:12:34","A simple template for the mouse-tracking paradigm","yes","Experiment-TF.osexp","C:\Users\Kristen\Documents\opPreviewExperiment-master\procedure","no","mono","no","24","no","black","no","yes","1050","legacy","83","15","C:/Users/Kristen/Documents/opPreviewExperiment-master/procedure/subject-23.csv","legacy","Kafkaesque Koffka","3.2.6","mult","0","l","NA","NA","a","a","9690","NA","NA","20079","9690","2","1767","legacy","large","1024","2","48000","-16","experiment","4_9_mult_FNI.jpg","23","odd","legacy","336513","NA","82456","NA","NA","2310","NA","2326","72765","336513","339255","22406","70196","2312","mousetracking operator preview effect","0","0","0","no","false","no","1680"
"neutral","undefined","1","undefined","undefined","white","no","legacy","legacy","legacy","0","relative","undefined","undefined","84","NA","0","0","0","0","0","0","0","100","100","0","15","0","no","04/29/19 12:12:34","A simple template for the mouse-tracking paradigm","yes","Experiment-TF.osexp","C:\Users\Kristen\Documents\opPreviewExperiment-master\procedure","no","mono","no","24","no","black","no","yes","1050","legacy","84","15","C:/Users/Kristen/Documents/opPreviewExperiment-master/procedure/subject-23.csv","legacy","Kafkaesque Koffka","3.2.6","mult","0","a","NA","NA","a","a","9690","NA","NA","20079","9690","2","1101","legacy","small","1024","2","48000","-16","experiment","2_7_mult_true.jpg","23","odd","legacy","339282","NA","82456","NA","NA","2310","NA","2326","72765","339282","341372","22406","70196","2312","mousetracking operator preview effect","0","0","0","no","true","no","1680"
"negative","undefined","0","undefined","undefined","white","no","legacy","legacy","legacy","0","relative","undefined","undefined","85","NA","0","0","0","0","0","0","0","101","101","0","15","0","no","04/29/19 12:12:34","A simple template for the mouse-tracking paradigm","yes","Experiment-TF.osexp","C:\Users\Kristen\Documents\opPreviewExperiment-master\procedure","no","mono","no","24","no","black","no","yes","1050","legacy","85","15","C:/Users/Kristen/Documents/opPreviewExperiment-master/procedure/subject-23.csv","legacy","Kafkaesque Koffka","3.2.6","add","0","l","NA","NA","a","a","9690","NA","NA","20079","9690","2","818","legacy","small","1024","2","48000","-16","experiment","2_7_add_true.jpg","23","odd","legacy","341401","NA","82456","NA","NA","2310","NA","2326","72765","341401","344389","22406","70196","2312","mousetracking operator preview effect","0","0","0","no","true","no","1680"
"neutral","undefined","1","undefined","undefined","white","no","legacy","legacy","legacy","0","relative","undefined","undefined","86","NA","0","0","0","0","0","0","0","102","102","0","15","0","no","04/29/19 12:12:34","A simple template for the mouse-tracking paradigm","yes","Experiment-TF.osexp","C:\Users\Kristen\Documents\opPreviewExperiment-master\procedure","no","mono","no","24","no","black","no","yes","1050","legacy","86","15","C:/Users/Kristen/Documents/opPreviewExperiment-master/procedure/subject-23.csv","legacy","Kafkaesque Koffka","3.2.6","add","0","l","NA","NA","a","a","9690","NA","NA","20079","9690","2","1165","legacy","large","1024","2","48000","-16","experiment","6_8_add_FI.jpg","23","odd","legacy","344433","NA","82456","NA","NA","2310","NA","2326","72765","344434","346589","22406","70196","2312","mousetracking operator preview effect","0","0","0","no","false","no","1680"
"negative","undefined","1","undefined","undefined","white","no","legacy","legacy","legacy","0","relative","undefined","undefined","87","NA","0","0","0","0","0","0","0","103","103","0","15","0","no","04/29/19 12:12:34","A simple template for the mouse-tracking paradigm","yes","Experiment-TF.osexp","C:\Users\Kristen\Documents\opPreviewExperiment-master\procedure","no","mono","no","24","no","black","no","yes","1050","legacy","87","15","C:/Users/Kristen/Documents/opPreviewExperiment-master/procedure/subject-23.csv","legacy","Kafkaesque Koffka","3.2.6","mult","0","l","NA","NA","a","a","9690","NA","NA","20079","9690","2","1651","legacy","large","1024","2","48000","-16","experiment","9_7_mult_FNI.jpg","23","odd","legacy","346619","NA","82456","NA","NA","2310","NA","2326","72765","346619","349424","22406","70196","2312","mousetracking operator preview effect","0","0","0","no","false","no","1680"
"neutral","undefined","1","undefined","undefined","white","no","legacy","legacy","legacy","0","relative","undefined","undefined","88","NA","0","0","0","0","0","0","0","104","104","0","15","0","no","04/29/19 12:12:34","A simple template for the mouse-tracking paradigm","yes","Experiment-TF.osexp","C:\Users\Kristen\Documents\opPreviewExperiment-master\procedure","no","mono","no","24","no","black","no","yes","1050","legacy","88","15","C:/Users/Kristen/Documents/opPreviewExperiment-master/procedure/subject-23.csv","legacy","Kafkaesque Koffka","3.2.6","add","0","a","NA","NA","a","a","9690","NA","NA","20079","9690","2","1945","legacy","large","1024","2","48000","-16","experiment","8_4_add_true.jpg","23","odd","legacy","349451","NA","82456","NA","NA","2310","NA","2326","72765","349451","352375","22406","70196","2312","mousetracking operator preview effect","0","0","0","no","true","no","1680"
"negative","undefined","1","undefined","undefined","white","no","legacy","legacy","legacy","0","relative","undefined","undefined","89","NA","0","0","0","0","0","0","0","105","105","0","15","0","no","04/29/19 12:12:34","A simple template for the mouse-tracking paradigm","yes","Experiment-TF.osexp","C:\Users\Kristen\Documents\opPreviewExperiment-master\procedure","no","mono","no","24","no","black","no","yes","1050","legacy","89","15","C:/Users/Kristen/Documents/opPreviewExperiment-master/procedure/subject-23.csv","legacy","Kafkaesque Koffka","3.2.6","add","0","l","NA","NA","a","a","9690","NA","NA","20079","9690","2","0","legacy","small","1024","2","48000","-16","experiment","8_2_add_FI.jpg","23","odd","legacy","352396","NA","82456","NA","NA","2310","NA","2326","72765","352396","353543","22406","70196","2312","mousetracking operator preview effect","0","0","0","no","false","no","1680"
"neutral","undefined","1","undefined","undefined","white","no","legacy","legacy","legacy","0","relative","undefined","undefined","90","NA","0","0","0","0","0","0","0","106","106","0","15","0","no","04/29/19 12:12:34","A simple template for the mouse-tracking paradigm","yes","Experiment-TF.osexp","C:\Users\Kristen\Documents\opPreviewExperiment-master\procedure","no","mono","no","24","no","black","no","yes","1050","legacy","90","15","C:/Users/Kristen/Documents/opPreviewExperiment-master/procedure/subject-23.csv","legacy","Kafkaesque Koffka","3.2.6","add","0","a","NA","NA","a","a","9690","NA","NA","20079","9690","2","2373","legacy","large","1024","2","48000","-16","experiment","4_9_add_true.jpg","23","odd","legacy","353565","NA","82456","NA","NA","2310","NA","2326","72765","353565","356916","22406","70196","2312","mousetracking operator preview effect","0","0","0","no","true","no","1680"
"negative","undefined","1","undefined","undefined","white","no","legacy","legacy","legacy","0","relative","undefined","undefined","91","NA","0","0","0","0","0","0","0","107","107","0","15","0","no","04/29/19 12:12:34","A simple template for the mouse-tracking paradigm","yes","Experiment-TF.osexp","C:\Users\Kristen\Documents\opPreviewExperiment-master\procedure","no","mono","no","24","no","black","no","yes","1050","legacy","91","15","C:/Users/Kristen/Documents/opPreviewExperiment-master/procedure/subject-23.csv","legacy","Kafkaesque Koffka","3.2.6","add","0","a","NA","NA","a","a","9690","NA","NA","20079","9690","2","2427","legacy","large","1024","2","48000","-16","experiment","4_9_add_true.jpg","23","odd","legacy","356946","NA","82456","NA","NA","2310","NA","2326","72765","356946","360522","22406","70196","2312","mousetracking operator preview effect","0","0","0","no","true","no","1680"
"negative","undefined","1","undefined","undefined","white","no","legacy","legacy","legacy","0","relative","undefined","undefined","92","NA","0","0","0","0","0","0","0","108","108","0","15","0","no","04/29/19 12:12:34","A simple template for the mouse-tracking paradigm","yes","Experiment-TF.osexp","C:\Users\Kristen\Documents\opPreviewExperiment-master\procedure","no","mono","no","24","no","black","no","yes","1050","legacy","92","15","C:/Users/Kristen/Documents/opPreviewExperiment-master/procedure/subject-23.csv","legacy","Kafkaesque Koffka","3.2.6","add","0","a","NA","NA","a","a","9690","NA","NA","20079","9690","2","7428","legacy","large","1024","2","48000","-16","experiment","6_8_add_true.jpg","23","odd","legacy","360543","NA","82456","NA","NA","2310","NA","2326","72765","360543","369118","22406","70196","2312","mousetracking operator preview effect","0","0","0","no","true","no","1680"
