"SOAcondition","acc","accuracy","average_response_time","avg_rt","background","bidi","canvas_backend","clock_backend","color_backend","compensation","coordinates","correct","correct_instruction1","count_block1_sequence","count_block2_sequence","count_block_1","count_block_2","count_breakScreen","count_experiment","count_finish","count_instruction1","count_instruction2","count_keyboard_script","count_logger","count_practiceBlock","count_practice_sequence","count_setup_script","custom_cursor","datetime","description","disable_garbage_collection","experiment_file","experiment_path","font_bold","font_family","font_italic","font_size","font_underline","foreground","form_clicks","fullscreen","height","keyboard_backend","live_row","live_row_practiceBlock","logfile","mouse_backend","opensesame_codename","opensesame_version","operation","repeat_cycle","response","response_breakScreen","response_finish","response_instruction1","response_instruction2","response_time","response_time_breakScreen","response_time_finish","response_time_instruction1","response_time_instruction2","round_decimals","rt","sampler_backend","size","sound_buf_size","sound_channels","sound_freq","sound_sample_size","start","stimulus","subject_nr","subject_parity","synth_backend","time_block1_sequence","time_block2_sequence","time_block_1","time_block_2","time_breakScreen","time_experiment","time_finish","time_instruction1","time_instruction2","time_keyboard_script","time_logger","time_practiceBlock","time_practice_sequence","time_setup_script","title","total_correct","total_response_time","total_responses","transparent_variables","truth","uniform_coordinates","width"
"neutral","undefined","1","undefined","undefined","white","no","legacy","legacy","legacy","0","relative","undefined","undefined","NA","NA","0","0","0","0","0","0","0","0","0","0","0","0","no","04/08/19 10:50:57","A simple template for the mouse-tracking paradigm","yes","Experiment-FT.osexp","C:\Users\Kristen\Documents\opPreviewExperiment-master\procedure","no","mono","no","24","no","black","no","yes","1050","legacy","0","0","C:/Users/Kristen/Documents/opPreviewExperiment-master/procedure/subject-16.csv","legacy","Kafkaesque Koffka","3.2.6","mult","0","a","NA","NA","l","NA","9249","NA","NA","9249","NA","2","825","legacy","NA","1024","2","48000","-16","experiment","0_3_mult_F.jpg","16","even","legacy","NA","NA","NA","NA","NA","1928","NA","1944","NA","11196","12957","11194","11196","1930","mousetracking operator preview effect","0","0","0","no","false","no","1680"
"neutral","undefined","1","undefined","undefined","white","no","legacy","legacy","legacy","0","relative","undefined","undefined","NA","NA","0","0","0","0","0","0","0","1","1","0","1","0","no","04/08/19 10:50:57","A simple template for the mouse-tracking paradigm","yes","Experiment-FT.osexp","C:\Users\Kristen\Documents\opPreviewExperiment-master\procedure","no","mono","no","24","no","black","no","yes","1050","legacy","1","1","C:/Users/Kristen/Documents/opPreviewExperiment-master/procedure/subject-16.csv","legacy","Kafkaesque Koffka","3.2.6","add","0","l","NA","NA","l","NA","9249","NA","NA","9249","NA","2","815","legacy","NA","1024","2","48000","-16","experiment","0_3_add_T.jpg","16","even","legacy","NA","NA","NA","NA","NA","1928","NA","1944","NA","12976","14756","11194","12976","1930","mousetracking operator preview effect","0","0","0","no","true","no","1680"
"negative","undefined","1","undefined","undefined","white","no","legacy","legacy","legacy","0","relative","undefined","undefined","NA","NA","0","0","0","0","0","0","0","2","2","0","2","0","no","04/08/19 10:50:57","A simple template for the mouse-tracking paradigm","yes","Experiment-FT.osexp","C:\Users\Kristen\Documents\opPreviewExperiment-master\procedure","no","mono","no","24","no","black","no","yes","1050","legacy","2","2","C:/Users/Kristen/Documents/opPreviewExperiment-master/procedure/subject-16.csv","legacy","Kafkaesque Koffka","3.2.6","mult","0","a","NA","NA","l","NA","9249","NA","NA","9249","NA","2","1020","legacy","NA","1024","2","48000","-16","experiment","0_3_mult_F.jpg","16","even","legacy","NA","NA","NA","NA","NA","1928","NA","1944","NA","14781","16951","11194","14781","1930","mousetracking operator preview effect","0","0","0","no","false","no","1680"
"neutral","undefined","1","undefined","undefined","white","no","legacy","legacy","legacy","0","relative","undefined","undefined","NA","NA","0","0","0","0","0","0","0","3","3","0","3","0","no","04/08/19 10:50:57","A simple template for the mouse-tracking paradigm","yes","Experiment-FT.osexp","C:\Users\Kristen\Documents\opPreviewExperiment-master\procedure","no","mono","no","24","no","black","no","yes","1050","legacy","3","3","C:/Users/Kristen/Documents/opPreviewExperiment-master/procedure/subject-16.csv","legacy","Kafkaesque Koffka","3.2.6","add","0","a","NA","NA","l","NA","9249","NA","NA","9249","NA","2","1124","legacy","NA","1024","2","48000","-16","experiment","1_4_add_F.jpg","16","even","legacy","NA","NA","NA","NA","NA","1928","NA","1944","NA","16971","19066","11194","16971","1930","mousetracking operator preview effect","0","0","0","no","false","no","1680"
"negative","undefined","1","undefined","undefined","white","no","legacy","legacy","legacy","0","relative","undefined","undefined","NA","NA","0","0","0","0","0","0","0","4","4","0","4","0","no","04/08/19 10:50:57","A simple template for the mouse-tracking paradigm","yes","Experiment-FT.osexp","C:\Users\Kristen\Documents\opPreviewExperiment-master\procedure","no","mono","no","24","no","black","no","yes","1050","legacy","4","4","C:/Users/Kristen/Documents/opPreviewExperiment-master/procedure/subject-16.csv","legacy","Kafkaesque Koffka","3.2.6","add","0","l","NA","NA","l","NA","9249","NA","NA","9249","NA","2","679","legacy","NA","1024","2","48000","-16","experiment","1_4_add_T.jpg","16","even","legacy","NA","NA","NA","NA","NA","1928","NA","1944","NA","19090","20913","11194","19090","1930","mousetracking operator preview effect","0","0","0","no","true","no","1680"
"neutral","undefined","1","undefined","undefined","white","no","legacy","legacy","legacy","0","relative","undefined","undefined","NA","NA","0","0","0","0","0","0","0","5","5","0","5","0","no","04/08/19 10:50:57","A simple template for the mouse-tracking paradigm","yes","Experiment-FT.osexp","C:\Users\Kristen\Documents\opPreviewExperiment-master\procedure","no","mono","no","24","no","black","no","yes","1050","legacy","5","5","C:/Users/Kristen/Documents/opPreviewExperiment-master/procedure/subject-16.csv","legacy","Kafkaesque Koffka","3.2.6","add","0","a","NA","NA","l","NA","9249","NA","NA","9249","NA","2","741","legacy","NA","1024","2","48000","-16","experiment","0_3_add_F.jpg","16","even","legacy","NA","NA","NA","NA","NA","1928","NA","1944","NA","20937","22642","11194","20937","1930","mousetracking operator preview effect","0","0","0","no","false","no","1680"
"negative","undefined","1","undefined","undefined","white","no","legacy","legacy","legacy","0","relative","undefined","undefined","NA","NA","0","0","0","0","0","0","0","6","6","0","6","0","no","04/08/19 10:50:57","A simple template for the mouse-tracking paradigm","yes","Experiment-FT.osexp","C:\Users\Kristen\Documents\opPreviewExperiment-master\procedure","no","mono","no","24","no","black","no","yes","1050","legacy","6","6","C:/Users/Kristen/Documents/opPreviewExperiment-master/procedure/subject-16.csv","legacy","Kafkaesque Koffka","3.2.6","mult","0","l","NA","NA","l","NA","9249","NA","NA","9249","NA","2","1303","legacy","NA","1024","2","48000","-16","experiment","0_3_mult_T.jpg","16","even","legacy","NA","NA","NA","NA","NA","1928","NA","1944","NA","22655","25102","11194","22655","1930","mousetracking operator preview effect","0","0","0","no","true","no","1680"
"negative","undefined","1","undefined","undefined","white","no","legacy","legacy","legacy","0","relative","undefined","undefined","NA","NA","0","0","0","0","0","0","0","7","7","0","7","0","no","04/08/19 10:50:57","A simple template for the mouse-tracking paradigm","yes","Experiment-FT.osexp","C:\Users\Kristen\Documents\opPreviewExperiment-master\procedure","no","mono","no","24","no","black","no","yes","1050","legacy","7","7","C:/Users/Kristen/Documents/opPreviewExperiment-master/procedure/subject-16.csv","legacy","Kafkaesque Koffka","3.2.6","mult","0","a","NA","NA","l","NA","9249","NA","NA","9249","NA","2","936","legacy","NA","1024","2","48000","-16","experiment","1_4_mult_F.jpg","16","even","legacy","NA","NA","NA","NA","NA","1928","NA","1944","NA","25124","27207","11194","25124","1930","mousetracking operator preview effect","0","0","0","no","false","no","1680"
"negative","undefined","1","undefined","undefined","white","no","legacy","legacy","legacy","0","relative","undefined","undefined","NA","NA","0","0","0","0","0","0","0","8","8","0","8","0","no","04/08/19 10:50:57","A simple template for the mouse-tracking paradigm","yes","Experiment-FT.osexp","C:\Users\Kristen\Documents\opPreviewExperiment-master\procedure","no","mono","no","24","no","black","no","yes","1050","legacy","8","8","C:/Users/Kristen/Documents/opPreviewExperiment-master/procedure/subject-16.csv","legacy","Kafkaesque Koffka","3.2.6","add","0","l","NA","NA","l","NA","9249","NA","NA","9249","NA","2","724","legacy","NA","1024","2","48000","-16","experiment","0_3_add_T.jpg","16","even","legacy","NA","NA","NA","NA","NA","1928","NA","1944","NA","27228","29098","11194","27228","1930","mousetracking operator preview effect","0","0","0","no","true","no","1680"
"negative","undefined","1","undefined","undefined","white","no","legacy","legacy","legacy","0","relative","undefined","undefined","NA","NA","0","0","0","0","0","0","0","9","9","0","9","0","no","04/08/19 10:50:57","A simple template for the mouse-tracking paradigm","yes","Experiment-FT.osexp","C:\Users\Kristen\Documents\opPreviewExperiment-master\procedure","no","mono","no","24","no","black","no","yes","1050","legacy","9","9","C:/Users/Kristen/Documents/opPreviewExperiment-master/procedure/subject-16.csv","legacy","Kafkaesque Koffka","3.2.6","add","0","a","NA","NA","l","NA","9249","NA","NA","9249","NA","2","738","legacy","NA","1024","2","48000","-16","experiment","0_3_add_F.jpg","16","even","legacy","NA","NA","NA","NA","NA","1928","NA","1944","NA","29125","30992","11194","29125","1930","mousetracking operator preview effect","0","0","0","no","false","no","1680"
"negative","undefined","1","undefined","undefined","white","no","legacy","legacy","legacy","0","relative","undefined","undefined","NA","NA","0","0","0","0","0","0","0","10","10","0","10","0","no","04/08/19 10:50:57","A simple template for the mouse-tracking paradigm","yes","Experiment-FT.osexp","C:\Users\Kristen\Documents\opPreviewExperiment-master\procedure","no","mono","no","24","no","black","no","yes","1050","legacy","10","10","C:/Users/Kristen/Documents/opPreviewExperiment-master/procedure/subject-16.csv","legacy","Kafkaesque Koffka","3.2.6","add","0","a","NA","NA","l","NA","9249","NA","NA","9249","NA","2","874","legacy","NA","1024","2","48000","-16","experiment","1_4_add_F.jpg","16","even","legacy","NA","NA","NA","NA","NA","1928","NA","1944","NA","31020","33042","11194","31020","1930","mousetracking operator preview effect","0","0","0","no","false","no","1680"
"neutral","undefined","1","undefined","undefined","white","no","legacy","legacy","legacy","0","relative","undefined","undefined","NA","NA","0","0","0","0","0","0","0","11","11","0","11","0","no","04/08/19 10:50:57","A simple template for the mouse-tracking paradigm","yes","Experiment-FT.osexp","C:\Users\Kristen\Documents\opPreviewExperiment-master\procedure","no","mono","no","24","no","black","no","yes","1050","legacy","11","11","C:/Users/Kristen/Documents/opPreviewExperiment-master/procedure/subject-16.csv","legacy","Kafkaesque Koffka","3.2.6","mult","0","l","NA","NA","l","NA","9249","NA","NA","9249","NA","2","922","legacy","NA","1024","2","48000","-16","experiment","0_3_mult_T.jpg","16","even","legacy","NA","NA","NA","NA","NA","1928","NA","1944","NA","33067","34964","11194","33067","1930","mousetracking operator preview effect","0","0","0","no","true","no","1680"
"neutral","undefined","1","undefined","undefined","white","no","legacy","legacy","legacy","0","relative","undefined","undefined","NA","NA","0","0","0","0","0","0","0","12","12","0","12","0","no","04/08/19 10:50:57","A simple template for the mouse-tracking paradigm","yes","Experiment-FT.osexp","C:\Users\Kristen\Documents\opPreviewExperiment-master\procedure","no","mono","no","24","no","black","no","yes","1050","legacy","12","12","C:/Users/Kristen/Documents/opPreviewExperiment-master/procedure/subject-16.csv","legacy","Kafkaesque Koffka","3.2.6","mult","0","a","NA","NA","l","NA","9249","NA","NA","9249","NA","2","1358","legacy","NA","1024","2","48000","-16","experiment","1_4_mult_F.jpg","16","even","legacy","NA","NA","NA","NA","NA","1928","NA","1944","NA","34985","37321","11194","34985","1930","mousetracking operator preview effect","0","0","0","no","false","no","1680"
"neutral","undefined","1","undefined","undefined","white","no","legacy","legacy","legacy","0","relative","undefined","undefined","NA","NA","0","0","0","0","0","0","0","13","13","0","13","0","no","04/08/19 10:50:57","A simple template for the mouse-tracking paradigm","yes","Experiment-FT.osexp","C:\Users\Kristen\Documents\opPreviewExperiment-master\procedure","no","mono","no","24","no","black","no","yes","1050","legacy","13","13","C:/Users/Kristen/Documents/opPreviewExperiment-master/procedure/subject-16.csv","legacy","Kafkaesque Koffka","3.2.6","mult","0","l","NA","NA","l","NA","9249","NA","NA","9249","NA","2","1295","legacy","NA","1024","2","48000","-16","experiment","1_4_mult_T.jpg","16","even","legacy","NA","NA","NA","NA","NA","1928","NA","1944","NA","37350","39609","11194","37350","1930","mousetracking operator preview effect","0","0","0","no","true","no","1680"
"neutral","undefined","1","undefined","undefined","white","no","legacy","legacy","legacy","0","relative","undefined","undefined","NA","NA","0","0","0","0","0","0","0","14","14","0","14","0","no","04/08/19 10:50:57","A simple template for the mouse-tracking paradigm","yes","Experiment-FT.osexp","C:\Users\Kristen\Documents\opPreviewExperiment-master\procedure","no","mono","no","24","no","black","no","yes","1050","legacy","14","14","C:/Users/Kristen/Documents/opPreviewExperiment-master/procedure/subject-16.csv","legacy","Kafkaesque Koffka","3.2.6","add","0","l","NA","NA","l","NA","9249","NA","NA","9249","NA","2","804","legacy","NA","1024","2","48000","-16","experiment","1_4_add_T.jpg","16","even","legacy","NA","NA","NA","NA","NA","1928","NA","1944","NA","39629","41406","11194","39629","1930","mousetracking operator preview effect","0","0","0","no","true","no","1680"
"negative","undefined","1","undefined","undefined","white","no","legacy","legacy","legacy","0","relative","undefined","undefined","NA","NA","0","0","0","0","0","0","0","15","15","0","15","0","no","04/08/19 10:50:57","A simple template for the mouse-tracking paradigm","yes","Experiment-FT.osexp","C:\Users\Kristen\Documents\opPreviewExperiment-master\procedure","no","mono","no","24","no","black","no","yes","1050","legacy","15","15","C:/Users/Kristen/Documents/opPreviewExperiment-master/procedure/subject-16.csv","legacy","Kafkaesque Koffka","3.2.6","mult","0","l","NA","NA","l","NA","9249","NA","NA","9249","NA","2","741","legacy","NA","1024","2","48000","-16","experiment","1_4_mult_T.jpg","16","even","legacy","NA","NA","NA","NA","NA","1928","NA","1944","NA","41429","43315","11194","41429","1930","mousetracking operator preview effect","0","0","0","no","true","no","1680"
"neutral","undefined","1","undefined","undefined","white","no","legacy","legacy","legacy","0","relative","undefined","undefined","0","NA","0","0","0","0","0","0","0","16","16","0","15","0","no","04/08/19 10:50:57","A simple template for the mouse-tracking paradigm","yes","Experiment-FT.osexp","C:\Users\Kristen\Documents\opPreviewExperiment-master\procedure","no","mono","no","24","no","black","no","yes","1050","legacy","0","15","C:/Users/Kristen/Documents/opPreviewExperiment-master/procedure/subject-16.csv","legacy","Kafkaesque Koffka","3.2.6","mult","0","a","NA","NA","l","l","3770","NA","NA","9249","3770","2","2063","legacy","large","1024","2","48000","-16","experiment","8_4_mult_FI.jpg","16","even","legacy","47123","NA","47120","NA","NA","1928","NA","1944","43349","47123","50157","11194","41429","1930","mousetracking operator preview effect","0","0","0","no","false","no","1680"
"neutral","undefined","1","undefined","undefined","white","no","legacy","legacy","legacy","0","relative","undefined","undefined","1","NA","0","0","0","0","0","0","0","17","17","0","15","0","no","04/08/19 10:50:57","A simple template for the mouse-tracking paradigm","yes","Experiment-FT.osexp","C:\Users\Kristen\Documents\opPreviewExperiment-master\procedure","no","mono","no","24","no","black","no","yes","1050","legacy","1","15","C:/Users/Kristen/Documents/opPreviewExperiment-master/procedure/subject-16.csv","legacy","Kafkaesque Koffka","3.2.6","mult","0","a","NA","NA","l","l","3770","NA","NA","9249","3770","2","1430","legacy","large","1024","2","48000","-16","experiment","9_7_mult_FI.jpg","16","even","legacy","50186","NA","47120","NA","NA","1928","NA","1944","43349","50187","52579","11194","41429","1930","mousetracking operator preview effect","0","0","0","no","false","no","1680"
"neutral","undefined","1","undefined","undefined","white","no","legacy","legacy","legacy","0","relative","undefined","undefined","2","NA","0","0","0","0","0","0","0","18","18","0","15","0","no","04/08/19 10:50:57","A simple template for the mouse-tracking paradigm","yes","Experiment-FT.osexp","C:\Users\Kristen\Documents\opPreviewExperiment-master\procedure","no","mono","no","24","no","black","no","yes","1050","legacy","2","15","C:/Users/Kristen/Documents/opPreviewExperiment-master/procedure/subject-16.csv","legacy","Kafkaesque Koffka","3.2.6","add","0","l","NA","NA","l","l","3770","NA","NA","9249","3770","2","1169","legacy","large","1024","2","48000","-16","experiment","6_8_add_true.jpg","16","even","legacy","52607","NA","47120","NA","NA","1928","NA","1944","43349","52607","54750","11194","41429","1930","mousetracking operator preview effect","0","0","0","no","true","no","1680"
"negative","undefined","1","undefined","undefined","white","no","legacy","legacy","legacy","0","relative","undefined","undefined","3","NA","0","0","0","0","0","0","0","19","19","0","15","0","no","04/08/19 10:50:57","A simple template for the mouse-tracking paradigm","yes","Experiment-FT.osexp","C:\Users\Kristen\Documents\opPreviewExperiment-master\procedure","no","mono","no","24","no","black","no","yes","1050","legacy","3","15","C:/Users/Kristen/Documents/opPreviewExperiment-master/procedure/subject-16.csv","legacy","Kafkaesque Koffka","3.2.6","add","0","a","NA","NA","l","l","3770","NA","NA","9249","3770","2","1507","legacy","small","1024","2","48000","-16","experiment","3_6_add_FI.jpg","16","even","legacy","54764","NA","47120","NA","NA","1928","NA","1944","43349","54765","57416","11194","41429","1930","mousetracking operator preview effect","0","0","0","no","false","no","1680"
"negative","undefined","1","undefined","undefined","white","no","legacy","legacy","legacy","0","relative","undefined","undefined","4","NA","0","0","0","0","0","0","0","20","20","0","15","0","no","04/08/19 10:50:57","A simple template for the mouse-tracking paradigm","yes","Experiment-FT.osexp","C:\Users\Kristen\Documents\opPreviewExperiment-master\procedure","no","mono","no","24","no","black","no","yes","1050","legacy","4","15","C:/Users/Kristen/Documents/opPreviewExperiment-master/procedure/subject-16.csv","legacy","Kafkaesque Koffka","3.2.6","add","0","l","NA","NA","l","l","3770","NA","NA","9249","3770","2","1218","legacy","small","1024","2","48000","-16","experiment","3_6_add_true.jpg","16","even","legacy","57438","NA","47120","NA","NA","1928","NA","1944","43349","57438","59793","11194","41429","1930","mousetracking operator preview effect","0","0","0","no","true","no","1680"
"neutral","undefined","1","undefined","undefined","white","no","legacy","legacy","legacy","0","relative","undefined","undefined","5","NA","0","0","0","0","0","0","0","21","21","0","15","0","no","04/08/19 10:50:57","A simple template for the mouse-tracking paradigm","yes","Experiment-FT.osexp","C:\Users\Kristen\Documents\opPreviewExperiment-master\procedure","no","mono","no","24","no","black","no","yes","1050","legacy","5","15","C:/Users/Kristen/Documents/opPreviewExperiment-master/procedure/subject-16.csv","legacy","Kafkaesque Koffka","3.2.6","add","0","l","NA","NA","l","l","3770","NA","NA","9249","3770","2","1291","legacy","large","1024","2","48000","-16","experiment","9_7_add_true.jpg","16","even","legacy","59819","NA","47120","NA","NA","1928","NA","1944","43349","59819","62084","11194","41429","1930","mousetracking operator preview effect","0","0","0","no","true","no","1680"
"neutral","undefined","1","undefined","undefined","white","no","legacy","legacy","legacy","0","relative","undefined","undefined","6","NA","0","0","0","0","0","0","0","22","22","0","15","0","no","04/08/19 10:50:57","A simple template for the mouse-tracking paradigm","yes","Experiment-FT.osexp","C:\Users\Kristen\Documents\opPreviewExperiment-master\procedure","no","mono","no","24","no","black","no","yes","1050","legacy","6","15","C:/Users/Kristen/Documents/opPreviewExperiment-master/procedure/subject-16.csv","legacy","Kafkaesque Koffka","3.2.6","mult","0","l","NA","NA","l","l","3770","NA","NA","9249","3770","2","1436","legacy","large","1024","2","48000","-16","experiment","8_4_mult_true.jpg","16","even","legacy","62098","NA","47120","NA","NA","1928","NA","1944","43349","62098","64496","11194","41429","1930","mousetracking operator preview effect","0","0","0","no","true","no","1680"
"negative","undefined","1","undefined","undefined","white","no","legacy","legacy","legacy","0","relative","undefined","undefined","7","NA","0","0","0","0","0","0","0","23","23","0","15","0","no","04/08/19 10:50:57","A simple template for the mouse-tracking paradigm","yes","Experiment-FT.osexp","C:\Users\Kristen\Documents\opPreviewExperiment-master\procedure","no","mono","no","24","no","black","no","yes","1050","legacy","7","15","C:/Users/Kristen/Documents/opPreviewExperiment-master/procedure/subject-16.csv","legacy","Kafkaesque Koffka","3.2.6","add","0","l","NA","NA","l","l","3770","NA","NA","9249","3770","2","1744","legacy","large","1024","2","48000","-16","experiment","4_9_add_true.jpg","16","even","legacy","64517","NA","47120","NA","NA","1928","NA","1944","43349","64517","67397","11194","41429","1930","mousetracking operator preview effect","0","0","0","no","true","no","1680"
"neutral","undefined","1","undefined","undefined","white","no","legacy","legacy","legacy","0","relative","undefined","undefined","8","NA","0","0","0","0","0","0","0","24","24","0","15","0","no","04/08/19 10:50:57","A simple template for the mouse-tracking paradigm","yes","Experiment-FT.osexp","C:\Users\Kristen\Documents\opPreviewExperiment-master\procedure","no","mono","no","24","no","black","no","yes","1050","legacy","8","15","C:/Users/Kristen/Documents/opPreviewExperiment-master/procedure/subject-16.csv","legacy","Kafkaesque Koffka","3.2.6","add","0","l","NA","NA","l","l","3770","NA","NA","9249","3770","2","1303","legacy","small","1024","2","48000","-16","experiment","3_6_add_true.jpg","16","even","legacy","67427","NA","47120","NA","NA","1928","NA","1944","43349","67427","69702","11194","41429","1930","mousetracking operator preview effect","0","0","0","no","true","no","1680"
"neutral","undefined","1","undefined","undefined","white","no","legacy","legacy","legacy","0","relative","undefined","undefined","9","NA","0","0","0","0","0","0","0","25","25","0","15","0","no","04/08/19 10:50:57","A simple template for the mouse-tracking paradigm","yes","Experiment-FT.osexp","C:\Users\Kristen\Documents\opPreviewExperiment-master\procedure","no","mono","no","24","no","black","no","yes","1050","legacy","9","15","C:/Users/Kristen/Documents/opPreviewExperiment-master/procedure/subject-16.csv","legacy","Kafkaesque Koffka","3.2.6","mult","0","l","NA","NA","l","l","3770","NA","NA","9249","3770","2","1336","legacy","large","1024","2","48000","-16","experiment","9_7_mult_true.jpg","16","even","legacy","69726","NA","47120","NA","NA","1928","NA","1944","43349","69726","72034","11194","41429","1930","mousetracking operator preview effect","0","0","0","no","true","no","1680"
"negative","undefined","1","undefined","undefined","white","no","legacy","legacy","legacy","0","relative","undefined","undefined","10","NA","0","0","0","0","0","0","0","26","26","0","15","0","no","04/08/19 10:50:57","A simple template for the mouse-tracking paradigm","yes","Experiment-FT.osexp","C:\Users\Kristen\Documents\opPreviewExperiment-master\procedure","no","mono","no","24","no","black","no","yes","1050","legacy","10","15","C:/Users/Kristen/Documents/opPreviewExperiment-master/procedure/subject-16.csv","legacy","Kafkaesque Koffka","3.2.6","mult","0","l","NA","NA","l","l","3770","NA","NA","9249","3770","2","2104","legacy","large","1024","2","48000","-16","experiment","9_7_mult_true.jpg","16","even","legacy","72056","NA","47120","NA","NA","1928","NA","1944","43349","72056","75302","11194","41429","1930","mousetracking operator preview effect","0","0","0","no","true","no","1680"
"neutral","undefined","1","undefined","undefined","white","no","legacy","legacy","legacy","0","relative","undefined","undefined","11","NA","0","0","0","0","0","0","0","27","27","0","15","0","no","04/08/19 10:50:57","A simple template for the mouse-tracking paradigm","yes","Experiment-FT.osexp","C:\Users\Kristen\Documents\opPreviewExperiment-master\procedure","no","mono","no","24","no","black","no","yes","1050","legacy","11","15","C:/Users/Kristen/Documents/opPreviewExperiment-master/procedure/subject-16.csv","legacy","Kafkaesque Koffka","3.2.6","add","0","a","NA","NA","l","l","3770","NA","NA","9249","3770","2","1596","legacy","small","1024","2","48000","-16","experiment","5_3_add_FI.jpg","16","even","legacy","75323","NA","47120","NA","NA","1928","NA","1944","43349","75323","77893","11194","41429","1930","mousetracking operator preview effect","0","0","0","no","false","no","1680"
"negative","undefined","1","undefined","undefined","white","no","legacy","legacy","legacy","0","relative","undefined","undefined","12","NA","0","0","0","0","0","0","0","28","28","0","15","0","no","04/08/19 10:50:57","A simple template for the mouse-tracking paradigm","yes","Experiment-FT.osexp","C:\Users\Kristen\Documents\opPreviewExperiment-master\procedure","no","mono","no","24","no","black","no","yes","1050","legacy","12","15","C:/Users/Kristen/Documents/opPreviewExperiment-master/procedure/subject-16.csv","legacy","Kafkaesque Koffka","3.2.6","add","0","a","NA","NA","l","l","3770","NA","NA","9249","3770","2","1497","legacy","small","1024","2","48000","-16","experiment","2_7_add_FNI.jpg","16","even","legacy","77921","NA","47120","NA","NA","1928","NA","1944","43349","77921","80560","11194","41429","1930","mousetracking operator preview effect","0","0","0","no","false","no","1680"
"neutral","undefined","0","undefined","undefined","white","no","legacy","legacy","legacy","0","relative","undefined","undefined","13","NA","0","0","0","0","0","0","0","29","29","0","15","0","no","04/08/19 10:50:57","A simple template for the mouse-tracking paradigm","yes","Experiment-FT.osexp","C:\Users\Kristen\Documents\opPreviewExperiment-master\procedure","no","mono","no","24","no","black","no","yes","1050","legacy","13","15","C:/Users/Kristen/Documents/opPreviewExperiment-master/procedure/subject-16.csv","legacy","Kafkaesque Koffka","3.2.6","add","0","l","NA","NA","l","l","3770","NA","NA","9249","3770","2","1788","legacy","large","1024","2","48000","-16","experiment","6_8_add_FNI.jpg","16","even","legacy","80588","NA","47120","NA","NA","1928","NA","1944","43349","80588","84364","11194","41429","1930","mousetracking operator preview effect","0","0","0","no","false","no","1680"
"negative","undefined","1","undefined","undefined","white","no","legacy","legacy","legacy","0","relative","undefined","undefined","14","NA","0","0","0","0","0","0","0","30","30","0","15","0","no","04/08/19 10:50:57","A simple template for the mouse-tracking paradigm","yes","Experiment-FT.osexp","C:\Users\Kristen\Documents\opPreviewExperiment-master\procedure","no","mono","no","24","no","black","no","yes","1050","legacy","14","15","C:/Users/Kristen/Documents/opPreviewExperiment-master/procedure/subject-16.csv","legacy","Kafkaesque Koffka","3.2.6","mult","0","a","NA","NA","l","l","3770","NA","NA","9249","3770","2","1336","legacy","small","1024","2","48000","-16","experiment","5_3_mult_FI.jpg","16","even","legacy","84400","NA","47120","NA","NA","1928","NA","1944","43349","84401","86864","11194","41429","1930","mousetracking operator preview effect","0","0","0","no","false","no","1680"
"negative","undefined","1","undefined","undefined","white","no","legacy","legacy","legacy","0","relative","undefined","undefined","15","NA","0","0","0","0","0","0","0","31","31","0","15","0","no","04/08/19 10:50:57","A simple template for the mouse-tracking paradigm","yes","Experiment-FT.osexp","C:\Users\Kristen\Documents\opPreviewExperiment-master\procedure","no","mono","no","24","no","black","no","yes","1050","legacy","15","15","C:/Users/Kristen/Documents/opPreviewExperiment-master/procedure/subject-16.csv","legacy","Kafkaesque Koffka","3.2.6","add","0","a","NA","NA","l","l","3770","NA","NA","9249","3770","2","1384","legacy","small","1024","2","48000","-16","experiment","8_2_add_FI.jpg","16","even","legacy","86886","NA","47120","NA","NA","1928","NA","1944","43349","86886","89416","11194","41429","1930","mousetracking operator preview effect","0","0","0","no","false","no","1680"
"negative","undefined","1","undefined","undefined","white","no","legacy","legacy","legacy","0","relative","undefined","undefined","16","NA","0","0","0","0","0","0","0","32","32","0","15","0","no","04/08/19 10:50:57","A simple template for the mouse-tracking paradigm","yes","Experiment-FT.osexp","C:\Users\Kristen\Documents\opPreviewExperiment-master\procedure","no","mono","no","24","no","black","no","yes","1050","legacy","16","15","C:/Users/Kristen/Documents/opPreviewExperiment-master/procedure/subject-16.csv","legacy","Kafkaesque Koffka","3.2.6","mult","0","l","NA","NA","l","l","3770","NA","NA","9249","3770","2","1388","legacy","small","1024","2","48000","-16","experiment","5_3_mult_true.jpg","16","even","legacy","89436","NA","47120","NA","NA","1928","NA","1944","43349","89437","91960","11194","41429","1930","mousetracking operator preview effect","0","0","0","no","true","no","1680"
"neutral","undefined","1","undefined","undefined","white","no","legacy","legacy","legacy","0","relative","undefined","undefined","17","NA","0","0","0","0","0","0","0","33","33","0","15","0","no","04/08/19 10:50:57","A simple template for the mouse-tracking paradigm","yes","Experiment-FT.osexp","C:\Users\Kristen\Documents\opPreviewExperiment-master\procedure","no","mono","no","24","no","black","no","yes","1050","legacy","17","15","C:/Users/Kristen/Documents/opPreviewExperiment-master/procedure/subject-16.csv","legacy","Kafkaesque Koffka","3.2.6","mult","0","l","NA","NA","l","l","3770","NA","NA","9249","3770","2","1348","legacy","large","1024","2","48000","-16","experiment","4_9_mult_true.jpg","16","even","legacy","91983","NA","47120","NA","NA","1928","NA","1944","43349","91983","94301","11194","41429","1930","mousetracking operator preview effect","0","0","0","no","true","no","1680"
"negative","undefined","1","undefined","undefined","white","no","legacy","legacy","legacy","0","relative","undefined","undefined","18","NA","0","0","0","0","0","0","0","34","34","0","15","0","no","04/08/19 10:50:57","A simple template for the mouse-tracking paradigm","yes","Experiment-FT.osexp","C:\Users\Kristen\Documents\opPreviewExperiment-master\procedure","no","mono","no","24","no","black","no","yes","1050","legacy","18","15","C:/Users/Kristen/Documents/opPreviewExperiment-master/procedure/subject-16.csv","legacy","Kafkaesque Koffka","3.2.6","add","0","l","NA","NA","l","l","3770","NA","NA","9249","3770","2","1643","legacy","small","1024","2","48000","-16","experiment","3_6_add_true.jpg","16","even","legacy","94332","NA","47120","NA","NA","1928","NA","1944","43349","94332","97116","11194","41429","1930","mousetracking operator preview effect","0","0","0","no","true","no","1680"
"negative","undefined","1","undefined","undefined","white","no","legacy","legacy","legacy","0","relative","undefined","undefined","19","NA","0","0","0","0","0","0","0","35","35","0","15","0","no","04/08/19 10:50:57","A simple template for the mouse-tracking paradigm","yes","Experiment-FT.osexp","C:\Users\Kristen\Documents\opPreviewExperiment-master\procedure","no","mono","no","24","no","black","no","yes","1050","legacy","19","15","C:/Users/Kristen/Documents/opPreviewExperiment-master/procedure/subject-16.csv","legacy","Kafkaesque Koffka","3.2.6","add","0","l","NA","NA","l","l","3770","NA","NA","9249","3770","2","844","legacy","small","1024","2","48000","-16","experiment","8_2_add_true.jpg","16","even","legacy","97130","NA","47120","NA","NA","1928","NA","1944","43349","97130","99116","11194","41429","1930","mousetracking operator preview effect","0","0","0","no","true","no","1680"
"negative","undefined","1","undefined","undefined","white","no","legacy","legacy","legacy","0","relative","undefined","undefined","20","NA","0","0","0","0","0","0","0","36","36","0","15","0","no","04/08/19 10:50:57","A simple template for the mouse-tracking paradigm","yes","Experiment-FT.osexp","C:\Users\Kristen\Documents\opPreviewExperiment-master\procedure","no","mono","no","24","no","black","no","yes","1050","legacy","20","15","C:/Users/Kristen/Documents/opPreviewExperiment-master/procedure/subject-16.csv","legacy","Kafkaesque Koffka","3.2.6","add","0","l","NA","NA","l","l","3770","NA","NA","9249","3770","2","1102","legacy","small","1024","2","48000","-16","experiment","5_3_add_true.jpg","16","even","legacy","99144","NA","47120","NA","NA","1928","NA","1944","43349","99144","101396","11194","41429","1930","mousetracking operator preview effect","0","0","0","no","true","no","1680"
"negative","undefined","1","undefined","undefined","white","no","legacy","legacy","legacy","0","relative","undefined","undefined","21","NA","0","0","0","0","0","0","0","37","37","0","15","0","no","04/08/19 10:50:57","A simple template for the mouse-tracking paradigm","yes","Experiment-FT.osexp","C:\Users\Kristen\Documents\opPreviewExperiment-master\procedure","no","mono","no","24","no","black","no","yes","1050","legacy","21","15","C:/Users/Kristen/Documents/opPreviewExperiment-master/procedure/subject-16.csv","legacy","Kafkaesque Koffka","3.2.6","mult","0","a","NA","NA","l","l","3770","NA","NA","9249","3770","2","1106","legacy","large","1024","2","48000","-16","experiment","8_4_mult_FI.jpg","16","even","legacy","101427","NA","47120","NA","NA","1928","NA","1944","43349","101427","103675","11194","41429","1930","mousetracking operator preview effect","0","0","0","no","false","no","1680"
"negative","undefined","1","undefined","undefined","white","no","legacy","legacy","legacy","0","relative","undefined","undefined","22","NA","0","0","0","0","0","0","0","38","38","0","15","0","no","04/08/19 10:50:57","A simple template for the mouse-tracking paradigm","yes","Experiment-FT.osexp","C:\Users\Kristen\Documents\opPreviewExperiment-master\procedure","no","mono","no","24","no","black","no","yes","1050","legacy","22","15","C:/Users/Kristen/Documents/opPreviewExperiment-master/procedure/subject-16.csv","legacy","Kafkaesque Koffka","3.2.6","mult","0","l","NA","NA","l","l","3770","NA","NA","9249","3770","2","887","legacy","small","1024","2","48000","-16","experiment","8_2_mult_true.jpg","16","even","legacy","103698","NA","47120","NA","NA","1928","NA","1944","43349","103698","105726","11194","41429","1930","mousetracking operator preview effect","0","0","0","no","true","no","1680"
"negative","undefined","1","undefined","undefined","white","no","legacy","legacy","legacy","0","relative","undefined","undefined","23","NA","0","0","0","0","0","0","0","39","39","0","15","0","no","04/08/19 10:50:57","A simple template for the mouse-tracking paradigm","yes","Experiment-FT.osexp","C:\Users\Kristen\Documents\opPreviewExperiment-master\procedure","no","mono","no","24","no","black","no","yes","1050","legacy","23","15","C:/Users/Kristen/Documents/opPreviewExperiment-master/procedure/subject-16.csv","legacy","Kafkaesque Koffka","3.2.6","mult","0","l","NA","NA","l","l","3770","NA","NA","9249","3770","2","998","legacy","small","1024","2","48000","-16","experiment","2_7_mult_true.jpg","16","even","legacy","105757","NA","47120","NA","NA","1928","NA","1944","43349","105757","107899","11194","41429","1930","mousetracking operator preview effect","0","0","0","no","true","no","1680"
"neutral","undefined","1","undefined","undefined","white","no","legacy","legacy","legacy","0","relative","undefined","undefined","24","NA","0","0","0","0","0","0","0","40","40","0","15","0","no","04/08/19 10:50:57","A simple template for the mouse-tracking paradigm","yes","Experiment-FT.osexp","C:\Users\Kristen\Documents\opPreviewExperiment-master\procedure","no","mono","no","24","no","black","no","yes","1050","legacy","24","15","C:/Users/Kristen/Documents/opPreviewExperiment-master/procedure/subject-16.csv","legacy","Kafkaesque Koffka","3.2.6","mult","0","l","NA","NA","l","l","3770","NA","NA","9249","3770","2","913","legacy","small","1024","2","48000","-16","experiment","8_2_mult_true.jpg","16","even","legacy","107929","NA","47120","NA","NA","1928","NA","1944","43349","107929","109814","11194","41429","1930","mousetracking operator preview effect","0","0","0","no","true","no","1680"
"neutral","undefined","1","undefined","undefined","white","no","legacy","legacy","legacy","0","relative","undefined","undefined","25","NA","0","0","0","0","0","0","0","41","41","0","15","0","no","04/08/19 10:50:57","A simple template for the mouse-tracking paradigm","yes","Experiment-FT.osexp","C:\Users\Kristen\Documents\opPreviewExperiment-master\procedure","no","mono","no","24","no","black","no","yes","1050","legacy","25","15","C:/Users/Kristen/Documents/opPreviewExperiment-master/procedure/subject-16.csv","legacy","Kafkaesque Koffka","3.2.6","add","0","a","NA","NA","l","l","3770","NA","NA","9249","3770","2","973","legacy","large","1024","2","48000","-16","experiment","6_8_add_FI.jpg","16","even","legacy","109840","NA","47120","NA","NA","1928","NA","1944","43349","109840","111789","11194","41429","1930","mousetracking operator preview effect","0","0","0","no","false","no","1680"
"negative","undefined","1","undefined","undefined","white","no","legacy","legacy","legacy","0","relative","undefined","undefined","26","NA","0","0","0","0","0","0","0","42","42","0","15","0","no","04/08/19 10:50:57","A simple template for the mouse-tracking paradigm","yes","Experiment-FT.osexp","C:\Users\Kristen\Documents\opPreviewExperiment-master\procedure","no","mono","no","24","no","black","no","yes","1050","legacy","26","15","C:/Users/Kristen/Documents/opPreviewExperiment-master/procedure/subject-16.csv","legacy","Kafkaesque Koffka","3.2.6","add","0","l","NA","NA","l","l","3770","NA","NA","9249","3770","2","1288","legacy","large","1024","2","48000","-16","experiment","9_7_add_true.jpg","16","even","legacy","111812","NA","47120","NA","NA","1928","NA","1944","43349","111812","114250","11194","41429","1930","mousetracking operator preview effect","0","0","0","no","true","no","1680"
"neutral","undefined","1","undefined","undefined","white","no","legacy","legacy","legacy","0","relative","undefined","undefined","27","NA","0","0","0","0","0","0","0","43","43","0","15","0","no","04/08/19 10:50:57","A simple template for the mouse-tracking paradigm","yes","Experiment-FT.osexp","C:\Users\Kristen\Documents\opPreviewExperiment-master\procedure","no","mono","no","24","no","black","no","yes","1050","legacy","27","15","C:/Users/Kristen/Documents/opPreviewExperiment-master/procedure/subject-16.csv","legacy","Kafkaesque Koffka","3.2.6","mult","0","a","NA","NA","l","l","3770","NA","NA","9249","3770","2","1160","legacy","small","1024","2","48000","-16","experiment","5_3_mult_FI.jpg","16","even","legacy","114281","NA","47120","NA","NA","1928","NA","1944","43349","114281","116404","11194","41429","1930","mousetracking operator preview effect","0","0","0","no","false","no","1680"
"neutral","undefined","0","undefined","undefined","white","no","legacy","legacy","legacy","0","relative","undefined","undefined","28","NA","0","0","0","0","0","0","0","44","44","0","15","0","no","04/08/19 10:50:57","A simple template for the mouse-tracking paradigm","yes","Experiment-FT.osexp","C:\Users\Kristen\Documents\opPreviewExperiment-master\procedure","no","mono","no","24","no","black","no","yes","1050","legacy","28","15","C:/Users/Kristen/Documents/opPreviewExperiment-master/procedure/subject-16.csv","legacy","Kafkaesque Koffka","3.2.6","mult","0","l","NA","NA","l","l","3770","NA","NA","9249","3770","2","2086","legacy","large","1024","2","48000","-16","experiment","9_7_mult_FNI.jpg","16","even","legacy","116433","NA","47120","NA","NA","1928","NA","1944","43349","116433","120496","11194","41429","1930","mousetracking operator preview effect","0","0","0","no","false","no","1680"
"negative","undefined","0","undefined","undefined","white","no","legacy","legacy","legacy","0","relative","undefined","undefined","29","NA","0","0","0","0","0","0","0","45","45","0","15","0","no","04/08/19 10:50:57","A simple template for the mouse-tracking paradigm","yes","Experiment-FT.osexp","C:\Users\Kristen\Documents\opPreviewExperiment-master\procedure","no","mono","no","24","no","black","no","yes","1050","legacy","29","15","C:/Users/Kristen/Documents/opPreviewExperiment-master/procedure/subject-16.csv","legacy","Kafkaesque Koffka","3.2.6","mult","0","a","NA","NA","l","l","3770","NA","NA","9249","3770","2","3177","legacy","large","1024","2","48000","-16","experiment","6_8_mult_true.jpg","16","even","legacy","120519","NA","47120","NA","NA","1928","NA","1944","43349","120519","125857","11194","41429","1930","mousetracking operator preview effect","0","0","0","no","true","no","1680"
"negative","undefined","1","undefined","undefined","white","no","legacy","legacy","legacy","0","relative","undefined","undefined","30","NA","0","0","0","0","0","0","0","46","46","0","15","0","no","04/08/19 10:50:57","A simple template for the mouse-tracking paradigm","yes","Experiment-FT.osexp","C:\Users\Kristen\Documents\opPreviewExperiment-master\procedure","no","mono","no","24","no","black","no","yes","1050","legacy","30","15","C:/Users/Kristen/Documents/opPreviewExperiment-master/procedure/subject-16.csv","legacy","Kafkaesque Koffka","3.2.6","add","0","a","NA","NA","l","l","3770","NA","NA","9249","3770","2","1249","legacy","large","1024","2","48000","-16","experiment","6_8_add_FI.jpg","16","even","legacy","125893","NA","47120","NA","NA","1928","NA","1944","43349","125894","128293","11194","41429","1930","mousetracking operator preview effect","0","0","0","no","false","no","1680"
"neutral","undefined","1","undefined","undefined","white","no","legacy","legacy","legacy","0","relative","undefined","undefined","31","NA","0","0","0","0","0","0","0","47","47","0","15","0","no","04/08/19 10:50:57","A simple template for the mouse-tracking paradigm","yes","Experiment-FT.osexp","C:\Users\Kristen\Documents\opPreviewExperiment-master\procedure","no","mono","no","24","no","black","no","yes","1050","legacy","31","15","C:/Users/Kristen/Documents/opPreviewExperiment-master/procedure/subject-16.csv","legacy","Kafkaesque Koffka","3.2.6","mult","0","a","NA","NA","l","l","3770","NA","NA","9249","3770","2","2624","legacy","small","1024","2","48000","-16","experiment","3_6_mult_FI.jpg","16","even","legacy","128314","NA","47120","NA","NA","1928","NA","1944","43349","128314","131913","11194","41429","1930","mousetracking operator preview effect","0","0","0","no","false","no","1680"
"neutral","undefined","1","undefined","undefined","white","no","legacy","legacy","legacy","0","relative","undefined","undefined","32","NA","0","0","0","0","0","0","0","48","48","0","15","0","no","04/08/19 10:50:57","A simple template for the mouse-tracking paradigm","yes","Experiment-FT.osexp","C:\Users\Kristen\Documents\opPreviewExperiment-master\procedure","no","mono","no","24","no","black","no","yes","1050","legacy","32","15","C:/Users/Kristen/Documents/opPreviewExperiment-master/procedure/subject-16.csv","legacy","Kafkaesque Koffka","3.2.6","add","0","l","NA","NA","l","l","3770","NA","NA","9249","3770","2","1041","legacy","small","1024","2","48000","-16","experiment","8_2_add_true.jpg","16","even","legacy","131938","NA","47120","NA","NA","1928","NA","1944","43349","131938","133957","11194","41429","1930","mousetracking operator preview effect","0","0","0","no","true","no","1680"
"negative","undefined","1","undefined","undefined","white","no","legacy","legacy","legacy","0","relative","undefined","undefined","33","NA","0","0","0","0","0","0","0","49","49","0","15","0","no","04/08/19 10:50:57","A simple template for the mouse-tracking paradigm","yes","Experiment-FT.osexp","C:\Users\Kristen\Documents\opPreviewExperiment-master\procedure","no","mono","no","24","no","black","no","yes","1050","legacy","33","15","C:/Users/Kristen/Documents/opPreviewExperiment-master/procedure/subject-16.csv","legacy","Kafkaesque Koffka","3.2.6","add","0","l","NA","NA","l","l","3770","NA","NA","9249","3770","2","2426","legacy","large","1024","2","48000","-16","experiment","9_7_add_true.jpg","16","even","legacy","133980","NA","47120","NA","NA","1928","NA","1944","43349","133980","137546","11194","41429","1930","mousetracking operator preview effect","0","0","0","no","true","no","1680"
"neutral","undefined","1","undefined","undefined","white","no","legacy","legacy","legacy","0","relative","undefined","undefined","34","NA","0","0","0","0","0","0","0","50","50","0","15","0","no","04/08/19 10:50:57","A simple template for the mouse-tracking paradigm","yes","Experiment-FT.osexp","C:\Users\Kristen\Documents\opPreviewExperiment-master\procedure","no","mono","no","24","no","black","no","yes","1050","legacy","34","15","C:/Users/Kristen/Documents/opPreviewExperiment-master/procedure/subject-16.csv","legacy","Kafkaesque Koffka","3.2.6","mult","0","a","NA","NA","l","l","3770","NA","NA","9249","3770","2","2397","legacy","large","1024","2","48000","-16","experiment","6_8_mult_FNI.jpg","16","even","legacy","137568","NA","47120","NA","NA","1928","NA","1944","43349","137569","140936","11194","41429","1930","mousetracking operator preview effect","0","0","0","no","false","no","1680"
"negative","undefined","1","undefined","undefined","white","no","legacy","legacy","legacy","0","relative","undefined","undefined","35","NA","0","0","0","0","0","0","0","51","51","0","15","0","no","04/08/19 10:50:57","A simple template for the mouse-tracking paradigm","yes","Experiment-FT.osexp","C:\Users\Kristen\Documents\opPreviewExperiment-master\procedure","no","mono","no","24","no","black","no","yes","1050","legacy","35","15","C:/Users/Kristen/Documents/opPreviewExperiment-master/procedure/subject-16.csv","legacy","Kafkaesque Koffka","3.2.6","mult","0","a","NA","NA","l","l","3770","NA","NA","9249","3770","2","1562","legacy","small","1024","2","48000","-16","experiment","2_7_mult_FI.jpg","16","even","legacy","140959","NA","47120","NA","NA","1928","NA","1944","43349","140959","143666","11194","41429","1930","mousetracking operator preview effect","0","0","0","no","false","no","1680"
"negative","undefined","1","undefined","undefined","white","no","legacy","legacy","legacy","0","relative","undefined","undefined","36","NA","0","0","0","0","0","0","0","52","52","0","15","0","no","04/08/19 10:50:57","A simple template for the mouse-tracking paradigm","yes","Experiment-FT.osexp","C:\Users\Kristen\Documents\opPreviewExperiment-master\procedure","no","mono","no","24","no","black","no","yes","1050","legacy","36","15","C:/Users/Kristen/Documents/opPreviewExperiment-master/procedure/subject-16.csv","legacy","Kafkaesque Koffka","3.2.6","mult","0","l","NA","NA","l","l","3770","NA","NA","9249","3770","2","1385","legacy","large","1024","2","48000","-16","experiment","8_4_mult_true.jpg","16","even","legacy","143694","NA","47120","NA","NA","1928","NA","1944","43349","143694","146210","11194","41429","1930","mousetracking operator preview effect","0","0","0","no","true","no","1680"
"neutral","undefined","1","undefined","undefined","white","no","legacy","legacy","legacy","0","relative","undefined","undefined","37","NA","0","0","0","0","0","0","0","53","53","0","15","0","no","04/08/19 10:50:57","A simple template for the mouse-tracking paradigm","yes","Experiment-FT.osexp","C:\Users\Kristen\Documents\opPreviewExperiment-master\procedure","no","mono","no","24","no","black","no","yes","1050","legacy","37","15","C:/Users/Kristen/Documents/opPreviewExperiment-master/procedure/subject-16.csv","legacy","Kafkaesque Koffka","3.2.6","add","0","a","NA","NA","l","l","3770","NA","NA","9249","3770","2","1283","legacy","large","1024","2","48000","-16","experiment","9_7_add_FI.jpg","16","even","legacy","146231","NA","47120","NA","NA","1928","NA","1944","43349","146231","148487","11194","41429","1930","mousetracking operator preview effect","0","0","0","no","false","no","1680"
"neutral","undefined","1","undefined","undefined","white","no","legacy","legacy","legacy","0","relative","undefined","undefined","38","NA","0","0","0","0","0","0","0","54","54","0","15","0","no","04/08/19 10:50:57","A simple template for the mouse-tracking paradigm","yes","Experiment-FT.osexp","C:\Users\Kristen\Documents\opPreviewExperiment-master\procedure","no","mono","no","24","no","black","no","yes","1050","legacy","38","15","C:/Users/Kristen/Documents/opPreviewExperiment-master/procedure/subject-16.csv","legacy","Kafkaesque Koffka","3.2.6","mult","0","a","NA","NA","l","l","3770","NA","NA","9249","3770","2","3075","legacy","large","1024","2","48000","-16","experiment","8_4_mult_FNI.jpg","16","even","legacy","148509","NA","47120","NA","NA","1928","NA","1944","43349","148509","152545","11194","41429","1930","mousetracking operator preview effect","0","0","0","no","false","no","1680"
"negative","undefined","1","undefined","undefined","white","no","legacy","legacy","legacy","0","relative","undefined","undefined","39","NA","0","0","0","0","0","0","0","55","55","0","15","0","no","04/08/19 10:50:57","A simple template for the mouse-tracking paradigm","yes","Experiment-FT.osexp","C:\Users\Kristen\Documents\opPreviewExperiment-master\procedure","no","mono","no","24","no","black","no","yes","1050","legacy","39","15","C:/Users/Kristen/Documents/opPreviewExperiment-master/procedure/subject-16.csv","legacy","Kafkaesque Koffka","3.2.6","add","0","l","NA","NA","l","l","3770","NA","NA","9249","3770","2","1293","legacy","small","1024","2","48000","-16","experiment","2_7_add_true.jpg","16","even","legacy","152567","NA","47120","NA","NA","1928","NA","1944","43349","152567","154993","11194","41429","1930","mousetracking operator preview effect","0","0","0","no","true","no","1680"
"negative","undefined","1","undefined","undefined","white","no","legacy","legacy","legacy","0","relative","undefined","undefined","40","NA","0","0","0","0","0","0","0","56","56","0","15","0","no","04/08/19 10:50:57","A simple template for the mouse-tracking paradigm","yes","Experiment-FT.osexp","C:\Users\Kristen\Documents\opPreviewExperiment-master\procedure","no","mono","no","24","no","black","no","yes","1050","legacy","40","15","C:/Users/Kristen/Documents/opPreviewExperiment-master/procedure/subject-16.csv","legacy","Kafkaesque Koffka","3.2.6","add","0","l","NA","NA","l","l","3770","NA","NA","9249","3770","2","1166","legacy","large","1024","2","48000","-16","experiment","8_4_add_true.jpg","16","even","legacy","155023","NA","47120","NA","NA","1928","NA","1944","43349","155023","157343","11194","41429","1930","mousetracking operator preview effect","0","0","0","no","true","no","1680"
"neutral","undefined","1","undefined","undefined","white","no","legacy","legacy","legacy","0","relative","undefined","undefined","41","NA","0","0","0","0","0","0","0","57","57","0","15","0","no","04/08/19 10:50:57","A simple template for the mouse-tracking paradigm","yes","Experiment-FT.osexp","C:\Users\Kristen\Documents\opPreviewExperiment-master\procedure","no","mono","no","24","no","black","no","yes","1050","legacy","41","15","C:/Users/Kristen/Documents/opPreviewExperiment-master/procedure/subject-16.csv","legacy","Kafkaesque Koffka","3.2.6","mult","0","l","NA","NA","l","l","3770","NA","NA","9249","3770","2","927","legacy","small","1024","2","48000","-16","experiment","8_2_mult_true.jpg","16","even","legacy","157362","NA","47120","NA","NA","1928","NA","1944","43349","157362","159261","11194","41429","1930","mousetracking operator preview effect","0","0","0","no","true","no","1680"
"neutral","undefined","1","undefined","undefined","white","no","legacy","legacy","legacy","0","relative","undefined","undefined","42","NA","0","0","0","0","0","0","0","58","58","0","15","0","no","04/08/19 10:50:57","A simple template for the mouse-tracking paradigm","yes","Experiment-FT.osexp","C:\Users\Kristen\Documents\opPreviewExperiment-master\procedure","no","mono","no","24","no","black","no","yes","1050","legacy","42","15","C:/Users/Kristen/Documents/opPreviewExperiment-master/procedure/subject-16.csv","legacy","Kafkaesque Koffka","3.2.6","mult","0","l","NA","NA","l","l","3770","NA","NA","9249","3770","2","1730","legacy","large","1024","2","48000","-16","experiment","8_4_mult_true.jpg","16","even","legacy","159277","NA","47120","NA","NA","1928","NA","1944","43349","159277","161970","11194","41429","1930","mousetracking operator preview effect","0","0","0","no","true","no","1680"
"neutral","undefined","0","undefined","undefined","white","no","legacy","legacy","legacy","0","relative","undefined","undefined","43","NA","0","0","0","0","0","0","0","59","59","0","15","0","no","04/08/19 10:50:57","A simple template for the mouse-tracking paradigm","yes","Experiment-FT.osexp","C:\Users\Kristen\Documents\opPreviewExperiment-master\procedure","no","mono","no","24","no","black","no","yes","1050","legacy","43","15","C:/Users/Kristen/Documents/opPreviewExperiment-master/procedure/subject-16.csv","legacy","Kafkaesque Koffka","3.2.6","mult","0","a","NA","NA","l","l","3770","NA","NA","9249","3770","2","1202","legacy","small","1024","2","48000","-16","experiment","2_7_mult_true.jpg","16","even","legacy","161992","NA","47120","NA","NA","1928","NA","1944","43349","161992","165187","11194","41429","1930","mousetracking operator preview effect","0","0","0","no","true","no","1680"
"negative","undefined","0","undefined","undefined","white","no","legacy","legacy","legacy","0","relative","undefined","undefined","44","NA","0","0","0","0","0","0","0","60","60","0","15","0","no","04/08/19 10:50:57","A simple template for the mouse-tracking paradigm","yes","Experiment-FT.osexp","C:\Users\Kristen\Documents\opPreviewExperiment-master\procedure","no","mono","no","24","no","black","no","yes","1050","legacy","44","15","C:/Users/Kristen/Documents/opPreviewExperiment-master/procedure/subject-16.csv","legacy","Kafkaesque Koffka","3.2.6","add","0","l","NA","NA","l","l","3770","NA","NA","9249","3770","2","1964","legacy","large","1024","2","48000","-16","experiment","6_8_add_FNI.jpg","16","even","legacy","165227","NA","47120","NA","NA","1928","NA","1944","43349","165228","169341","11194","41429","1930","mousetracking operator preview effect","0","0","0","no","false","no","1680"
"negative","undefined","1","undefined","undefined","white","no","legacy","legacy","legacy","0","relative","undefined","undefined","45","NA","0","0","0","0","0","0","0","61","61","0","15","0","no","04/08/19 10:50:57","A simple template for the mouse-tracking paradigm","yes","Experiment-FT.osexp","C:\Users\Kristen\Documents\opPreviewExperiment-master\procedure","no","mono","no","24","no","black","no","yes","1050","legacy","45","15","C:/Users/Kristen/Documents/opPreviewExperiment-master/procedure/subject-16.csv","legacy","Kafkaesque Koffka","3.2.6","add","0","l","NA","NA","l","l","3770","NA","NA","9249","3770","2","2336","legacy","large","1024","2","48000","-16","experiment","8_4_add_true.jpg","16","even","legacy","169376","NA","47120","NA","NA","1928","NA","1944","43349","169377","172862","11194","41429","1930","mousetracking operator preview effect","0","0","0","no","true","no","1680"
"neutral","undefined","1","undefined","undefined","white","no","legacy","legacy","legacy","0","relative","undefined","undefined","46","NA","0","0","0","0","0","0","0","62","62","0","15","0","no","04/08/19 10:50:57","A simple template for the mouse-tracking paradigm","yes","Experiment-FT.osexp","C:\Users\Kristen\Documents\opPreviewExperiment-master\procedure","no","mono","no","24","no","black","no","yes","1050","legacy","46","15","C:/Users/Kristen/Documents/opPreviewExperiment-master/procedure/subject-16.csv","legacy","Kafkaesque Koffka","3.2.6","mult","0","a","NA","NA","l","l","3770","NA","NA","9249","3770","2","1213","legacy","large","1024","2","48000","-16","experiment","4_9_mult_FI.jpg","16","even","legacy","172875","NA","47120","NA","NA","1928","NA","1944","43349","172876","175046","11194","41429","1930","mousetracking operator preview effect","0","0","0","no","false","no","1680"
"neutral","undefined","1","undefined","undefined","white","no","legacy","legacy","legacy","0","relative","undefined","undefined","47","NA","0","0","0","0","0","0","0","63","63","0","15","0","no","04/08/19 10:50:57","A simple template for the mouse-tracking paradigm","yes","Experiment-FT.osexp","C:\Users\Kristen\Documents\opPreviewExperiment-master\procedure","no","mono","no","24","no","black","no","yes","1050","legacy","47","15","C:/Users/Kristen/Documents/opPreviewExperiment-master/procedure/subject-16.csv","legacy","Kafkaesque Koffka","3.2.6","add","0","a","NA","NA","l","l","3770","NA","NA","9249","3770","2","2520","legacy","large","1024","2","48000","-16","experiment","8_4_add_FNI.jpg","16","even","legacy","175066","NA","47120","NA","NA","1928","NA","1944","43349","175066","178560","11194","41429","1930","mousetracking operator preview effect","0","0","0","no","false","no","1680"
"negative","undefined","1","undefined","undefined","white","no","legacy","legacy","legacy","0","relative","undefined","undefined","48","NA","0","0","0","0","0","0","0","64","64","0","15","0","no","04/08/19 10:50:57","A simple template for the mouse-tracking paradigm","yes","Experiment-FT.osexp","C:\Users\Kristen\Documents\opPreviewExperiment-master\procedure","no","mono","no","24","no","black","no","yes","1050","legacy","48","15","C:/Users/Kristen/Documents/opPreviewExperiment-master/procedure/subject-16.csv","legacy","Kafkaesque Koffka","3.2.6","mult","0","a","NA","NA","l","l","3770","NA","NA","9249","3770","2","1314","legacy","small","1024","2","48000","-16","experiment","8_2_mult_FNI.jpg","16","even","legacy","178584","NA","47120","NA","NA","1928","NA","1944","43349","178584","181022","11194","41429","1930","mousetracking operator preview effect","0","0","0","no","false","no","1680"
"neutral","undefined","1","undefined","undefined","white","no","legacy","legacy","legacy","0","relative","undefined","undefined","49","NA","0","0","0","0","0","0","0","65","65","0","15","0","no","04/08/19 10:50:57","A simple template for the mouse-tracking paradigm","yes","Experiment-FT.osexp","C:\Users\Kristen\Documents\opPreviewExperiment-master\procedure","no","mono","no","24","no","black","no","yes","1050","legacy","49","15","C:/Users/Kristen/Documents/opPreviewExperiment-master/procedure/subject-16.csv","legacy","Kafkaesque Koffka","3.2.6","add","0","a","NA","NA","l","l","3770","NA","NA","9249","3770","2","2759","legacy","small","1024","2","48000","-16","experiment","3_6_add_FNI.jpg","16","even","legacy","181043","NA","47120","NA","NA","1928","NA","1944","43349","181043","184761","11194","41429","1930","mousetracking operator preview effect","0","0","0","no","false","no","1680"
"negative","undefined","1","undefined","undefined","white","no","legacy","legacy","legacy","0","relative","undefined","undefined","50","NA","0","0","0","0","0","0","0","66","66","0","15","0","no","04/08/19 10:50:57","A simple template for the mouse-tracking paradigm","yes","Experiment-FT.osexp","C:\Users\Kristen\Documents\opPreviewExperiment-master\procedure","no","mono","no","24","no","black","no","yes","1050","legacy","50","15","C:/Users/Kristen/Documents/opPreviewExperiment-master/procedure/subject-16.csv","legacy","Kafkaesque Koffka","3.2.6","mult","0","a","NA","NA","l","l","3770","NA","NA","9249","3770","2","1441","legacy","small","1024","2","48000","-16","experiment","3_6_mult_FNI.jpg","16","even","legacy","184787","NA","47120","NA","NA","1928","NA","1944","43349","184787","187374","11194","41429","1930","mousetracking operator preview effect","0","0","0","no","false","no","1680"
"neutral","undefined","1","undefined","undefined","white","no","legacy","legacy","legacy","0","relative","undefined","undefined","51","NA","0","0","0","0","0","0","0","67","67","0","15","0","no","04/08/19 10:50:57","A simple template for the mouse-tracking paradigm","yes","Experiment-FT.osexp","C:\Users\Kristen\Documents\opPreviewExperiment-master\procedure","no","mono","no","24","no","black","no","yes","1050","legacy","51","15","C:/Users/Kristen/Documents/opPreviewExperiment-master/procedure/subject-16.csv","legacy","Kafkaesque Koffka","3.2.6","add","0","l","NA","NA","l","l","3770","NA","NA","9249","3770","2","1464","legacy","small","1024","2","48000","-16","experiment","5_3_add_true.jpg","16","even","legacy","187397","NA","47120","NA","NA","1928","NA","1944","43349","187397","189833","11194","41429","1930","mousetracking operator preview effect","0","0","0","no","true","no","1680"
"negative","undefined","1","undefined","undefined","white","no","legacy","legacy","legacy","0","relative","undefined","undefined","52","NA","0","0","0","0","0","0","0","68","68","0","15","0","no","04/08/19 10:50:57","A simple template for the mouse-tracking paradigm","yes","Experiment-FT.osexp","C:\Users\Kristen\Documents\opPreviewExperiment-master\procedure","no","mono","no","24","no","black","no","yes","1050","legacy","52","15","C:/Users/Kristen/Documents/opPreviewExperiment-master/procedure/subject-16.csv","legacy","Kafkaesque Koffka","3.2.6","add","0","a","NA","NA","l","l","3770","NA","NA","9249","3770","2","1889","legacy","small","1024","2","48000","-16","experiment","5_3_add_FI.jpg","16","even","legacy","189853","NA","47120","NA","NA","1928","NA","1944","43349","189853","192885","11194","41429","1930","mousetracking operator preview effect","0","0","0","no","false","no","1680"
"neutral","undefined","1","undefined","undefined","white","no","legacy","legacy","legacy","0","relative","undefined","undefined","53","NA","0","0","0","0","0","0","0","69","69","0","15","0","no","04/08/19 10:50:57","A simple template for the mouse-tracking paradigm","yes","Experiment-FT.osexp","C:\Users\Kristen\Documents\opPreviewExperiment-master\procedure","no","mono","no","24","no","black","no","yes","1050","legacy","53","15","C:/Users/Kristen/Documents/opPreviewExperiment-master/procedure/subject-16.csv","legacy","Kafkaesque Koffka","3.2.6","add","0","a","NA","NA","l","l","3770","NA","NA","9249","3770","2","1489","legacy","small","1024","2","48000","-16","experiment","8_2_add_FI.jpg","16","even","legacy","192899","NA","47120","NA","NA","1928","NA","1944","43349","192899","195362","11194","41429","1930","mousetracking operator preview effect","0","0","0","no","false","no","1680"
"negative","undefined","1","undefined","undefined","white","no","legacy","legacy","legacy","0","relative","undefined","undefined","54","NA","0","0","0","0","0","0","0","70","70","0","15","0","no","04/08/19 10:50:57","A simple template for the mouse-tracking paradigm","yes","Experiment-FT.osexp","C:\Users\Kristen\Documents\opPreviewExperiment-master\procedure","no","mono","no","24","no","black","no","yes","1050","legacy","54","15","C:/Users/Kristen/Documents/opPreviewExperiment-master/procedure/subject-16.csv","legacy","Kafkaesque Koffka","3.2.6","add","0","a","NA","NA","l","l","3770","NA","NA","9249","3770","2","1331","legacy","small","1024","2","48000","-16","experiment","8_2_add_FNI.jpg","16","even","legacy","195393","NA","47120","NA","NA","1928","NA","1944","43349","195393","197875","11194","41429","1930","mousetracking operator preview effect","0","0","0","no","false","no","1680"
"neutral","undefined","1","undefined","undefined","white","no","legacy","legacy","legacy","0","relative","undefined","undefined","55","NA","0","0","0","0","0","0","0","71","71","0","15","0","no","04/08/19 10:50:57","A simple template for the mouse-tracking paradigm","yes","Experiment-FT.osexp","C:\Users\Kristen\Documents\opPreviewExperiment-master\procedure","no","mono","no","24","no","black","no","yes","1050","legacy","55","15","C:/Users/Kristen/Documents/opPreviewExperiment-master/procedure/subject-16.csv","legacy","Kafkaesque Koffka","3.2.6","add","0","l","NA","NA","l","l","3770","NA","NA","9249","3770","2","3249","legacy","large","1024","2","48000","-16","experiment","4_9_add_true.jpg","16","even","legacy","197890","NA","47120","NA","NA","1928","NA","1944","43349","197890","202106","11194","41429","1930","mousetracking operator preview effect","0","0","0","no","true","no","1680"
"neutral","undefined","1","undefined","undefined","white","no","legacy","legacy","legacy","0","relative","undefined","undefined","56","NA","0","0","0","0","0","0","0","72","72","0","15","0","no","04/08/19 10:50:57","A simple template for the mouse-tracking paradigm","yes","Experiment-FT.osexp","C:\Users\Kristen\Documents\opPreviewExperiment-master\procedure","no","mono","no","24","no","black","no","yes","1050","legacy","56","15","C:/Users/Kristen/Documents/opPreviewExperiment-master/procedure/subject-16.csv","legacy","Kafkaesque Koffka","3.2.6","add","0","l","NA","NA","l","l","3770","NA","NA","9249","3770","2","1598","legacy","small","1024","2","48000","-16","experiment","2_7_add_true.jpg","16","even","legacy","202132","NA","47120","NA","NA","1928","NA","1944","43349","202132","204701","11194","41429","1930","mousetracking operator preview effect","0","0","0","no","true","no","1680"
"neutral","undefined","1","undefined","undefined","white","no","legacy","legacy","legacy","0","relative","undefined","undefined","57","NA","0","0","0","0","0","0","0","73","73","0","15","0","no","04/08/19 10:50:57","A simple template for the mouse-tracking paradigm","yes","Experiment-FT.osexp","C:\Users\Kristen\Documents\opPreviewExperiment-master\procedure","no","mono","no","24","no","black","no","yes","1050","legacy","57","15","C:/Users/Kristen/Documents/opPreviewExperiment-master/procedure/subject-16.csv","legacy","Kafkaesque Koffka","3.2.6","add","0","l","NA","NA","l","l","3770","NA","NA","9249","3770","2","814","legacy","small","1024","2","48000","-16","experiment","8_2_add_true.jpg","16","even","legacy","204731","NA","47120","NA","NA","1928","NA","1944","43349","204731","206505","11194","41429","1930","mousetracking operator preview effect","0","0","0","no","true","no","1680"
"negative","undefined","1","undefined","undefined","white","no","legacy","legacy","legacy","0","relative","undefined","undefined","58","NA","0","0","0","0","0","0","0","74","74","0","15","0","no","04/08/19 10:50:57","A simple template for the mouse-tracking paradigm","yes","Experiment-FT.osexp","C:\Users\Kristen\Documents\opPreviewExperiment-master\procedure","no","mono","no","24","no","black","no","yes","1050","legacy","58","15","C:/Users/Kristen/Documents/opPreviewExperiment-master/procedure/subject-16.csv","legacy","Kafkaesque Koffka","3.2.6","add","0","l","NA","NA","l","l","3770","NA","NA","9249","3770","2","2064","legacy","small","1024","2","48000","-16","experiment","2_7_add_true.jpg","16","even","legacy","206527","NA","47120","NA","NA","1928","NA","1944","43349","206527","209721","11194","41429","1930","mousetracking operator preview effect","0","0","0","no","true","no","1680"
"neutral","undefined","1","undefined","undefined","white","no","legacy","legacy","legacy","0","relative","undefined","undefined","59","NA","0","0","0","0","0","0","0","75","75","0","15","0","no","04/08/19 10:50:57","A simple template for the mouse-tracking paradigm","yes","Experiment-FT.osexp","C:\Users\Kristen\Documents\opPreviewExperiment-master\procedure","no","mono","no","24","no","black","no","yes","1050","legacy","59","15","C:/Users/Kristen/Documents/opPreviewExperiment-master/procedure/subject-16.csv","legacy","Kafkaesque Koffka","3.2.6","add","0","l","NA","NA","l","l","3770","NA","NA","9249","3770","2","4977","legacy","large","1024","2","48000","-16","experiment","9_7_add_true.jpg","16","even","legacy","209741","NA","47120","NA","NA","1928","NA","1944","43349","209741","215687","11194","41429","1930","mousetracking operator preview effect","0","0","0","no","true","no","1680"
"negative","undefined","1","undefined","undefined","white","no","legacy","legacy","legacy","0","relative","undefined","undefined","60","NA","0","0","0","0","0","0","0","76","76","0","15","0","no","04/08/19 10:50:57","A simple template for the mouse-tracking paradigm","yes","Experiment-FT.osexp","C:\Users\Kristen\Documents\opPreviewExperiment-master\procedure","no","mono","no","24","no","black","no","yes","1050","legacy","60","15","C:/Users/Kristen/Documents/opPreviewExperiment-master/procedure/subject-16.csv","legacy","Kafkaesque Koffka","3.2.6","mult","0","l","NA","NA","l","l","3770","NA","NA","9249","3770","2","1281","legacy","small","1024","2","48000","-16","experiment","5_3_mult_true.jpg","16","even","legacy","215708","NA","47120","NA","NA","1928","NA","1944","43349","215708","218132","11194","41429","1930","mousetracking operator preview effect","0","0","0","no","true","no","1680"
"negative","undefined","1","undefined","undefined","white","no","legacy","legacy","legacy","0","relative","undefined","undefined","61","NA","0","0","0","0","0","0","0","77","77","0","15","0","no","04/08/19 10:50:57","A simple template for the mouse-tracking paradigm","yes","Experiment-FT.osexp","C:\Users\Kristen\Documents\opPreviewExperiment-master\procedure","no","mono","no","24","no","black","no","yes","1050","legacy","61","15","C:/Users/Kristen/Documents/opPreviewExperiment-master/procedure/subject-16.csv","legacy","Kafkaesque Koffka","3.2.6","mult","0","a","NA","NA","l","l","3770","NA","NA","9249","3770","2","1687","legacy","large","1024","2","48000","-16","experiment","8_4_mult_FNI.jpg","16","even","legacy","218152","NA","47120","NA","NA","1928","NA","1944","43349","218152","220967","11194","41429","1930","mousetracking operator preview effect","0","0","0","no","false","no","1680"
"neutral","undefined","1","undefined","undefined","white","no","legacy","legacy","legacy","0","relative","undefined","undefined","62","NA","0","0","0","0","0","0","0","78","78","0","15","0","no","04/08/19 10:50:57","A simple template for the mouse-tracking paradigm","yes","Experiment-FT.osexp","C:\Users\Kristen\Documents\opPreviewExperiment-master\procedure","no","mono","no","24","no","black","no","yes","1050","legacy","62","15","C:/Users/Kristen/Documents/opPreviewExperiment-master/procedure/subject-16.csv","legacy","Kafkaesque Koffka","3.2.6","mult","0","l","NA","NA","l","l","3770","NA","NA","9249","3770","2","2128","legacy","large","1024","2","48000","-16","experiment","4_9_mult_true.jpg","16","even","legacy","220991","NA","47120","NA","NA","1928","NA","1944","43349","220991","224091","11194","41429","1930","mousetracking operator preview effect","0","0","0","no","true","no","1680"
"neutral","undefined","1","undefined","undefined","white","no","legacy","legacy","legacy","0","relative","undefined","undefined","63","NA","0","0","0","0","0","0","0","79","79","0","15","0","no","04/08/19 10:50:57","A simple template for the mouse-tracking paradigm","yes","Experiment-FT.osexp","C:\Users\Kristen\Documents\opPreviewExperiment-master\procedure","no","mono","no","24","no","black","no","yes","1050","legacy","63","15","C:/Users/Kristen/Documents/opPreviewExperiment-master/procedure/subject-16.csv","legacy","Kafkaesque Koffka","3.2.6","mult","0","l","NA","NA","l","l","3770","NA","NA","9249","3770","2","1125","legacy","small","1024","2","48000","-16","experiment","3_6_mult_true.jpg","16","even","legacy","224122","NA","47120","NA","NA","1928","NA","1944","43349","224122","226207","11194","41429","1930","mousetracking operator preview effect","0","0","0","no","true","no","1680"
"negative","undefined","1","undefined","undefined","white","no","legacy","legacy","legacy","0","relative","undefined","undefined","64","NA","0","0","0","0","0","0","0","80","80","0","15","0","no","04/08/19 10:50:57","A simple template for the mouse-tracking paradigm","yes","Experiment-FT.osexp","C:\Users\Kristen\Documents\opPreviewExperiment-master\procedure","no","mono","no","24","no","black","no","yes","1050","legacy","64","15","C:/Users/Kristen/Documents/opPreviewExperiment-master/procedure/subject-16.csv","legacy","Kafkaesque Koffka","3.2.6","mult","0","a","NA","NA","l","l","3770","NA","NA","9249","3770","2","1358","legacy","large","1024","2","48000","-16","experiment","4_9_mult_FI.jpg","16","even","legacy","226233","NA","47120","NA","NA","1928","NA","1944","43349","226233","228716","11194","41429","1930","mousetracking operator preview effect","0","0","0","no","false","no","1680"
"neutral","undefined","1","undefined","undefined","white","no","legacy","legacy","legacy","0","relative","undefined","undefined","65","NA","0","0","0","0","0","0","0","81","81","0","15","0","no","04/08/19 10:50:57","A simple template for the mouse-tracking paradigm","yes","Experiment-FT.osexp","C:\Users\Kristen\Documents\opPreviewExperiment-master\procedure","no","mono","no","24","no","black","no","yes","1050","legacy","65","15","C:/Users/Kristen/Documents/opPreviewExperiment-master/procedure/subject-16.csv","legacy","Kafkaesque Koffka","3.2.6","mult","0","a","NA","NA","l","l","3770","NA","NA","9249","3770","2","1144","legacy","large","1024","2","48000","-16","experiment","4_9_mult_FNI.jpg","16","even","legacy","228742","NA","47120","NA","NA","1928","NA","1944","43349","228742","230849","11194","41429","1930","mousetracking operator preview effect","0","0","0","no","false","no","1680"
"negative","undefined","1","undefined","undefined","white","no","legacy","legacy","legacy","0","relative","undefined","undefined","66","NA","0","0","0","0","0","0","0","82","82","0","15","0","no","04/08/19 10:50:57","A simple template for the mouse-tracking paradigm","yes","Experiment-FT.osexp","C:\Users\Kristen\Documents\opPreviewExperiment-master\procedure","no","mono","no","24","no","black","no","yes","1050","legacy","66","15","C:/Users/Kristen/Documents/opPreviewExperiment-master/procedure/subject-16.csv","legacy","Kafkaesque Koffka","3.2.6","mult","0","l","NA","NA","l","l","3770","NA","NA","9249","3770","2","2905","legacy","large","1024","2","48000","-16","experiment","9_7_mult_true.jpg","16","even","legacy","230870","NA","47120","NA","NA","1928","NA","1944","43349","230870","234919","11194","41429","1930","mousetracking operator preview effect","0","0","0","no","true","no","1680"
"negative","undefined","1","undefined","undefined","white","no","legacy","legacy","legacy","0","relative","undefined","undefined","67","NA","0","0","0","0","0","0","0","83","83","0","15","0","no","04/08/19 10:50:57","A simple template for the mouse-tracking paradigm","yes","Experiment-FT.osexp","C:\Users\Kristen\Documents\opPreviewExperiment-master\procedure","no","mono","no","24","no","black","no","yes","1050","legacy","67","15","C:/Users/Kristen/Documents/opPreviewExperiment-master/procedure/subject-16.csv","legacy","Kafkaesque Koffka","3.2.6","mult","0","a","NA","NA","l","l","3770","NA","NA","9249","3770","2","2112","legacy","large","1024","2","48000","-16","experiment","4_9_mult_FNI.jpg","16","even","legacy","234940","NA","47120","NA","NA","1928","NA","1944","43349","234940","238193","11194","41429","1930","mousetracking operator preview effect","0","0","0","no","false","no","1680"
"negative","undefined","1","undefined","undefined","white","no","legacy","legacy","legacy","0","relative","undefined","undefined","68","NA","0","0","0","0","0","0","0","84","84","0","15","0","no","04/08/19 10:50:57","A simple template for the mouse-tracking paradigm","yes","Experiment-FT.osexp","C:\Users\Kristen\Documents\opPreviewExperiment-master\procedure","no","mono","no","24","no","black","no","yes","1050","legacy","68","15","C:/Users/Kristen/Documents/opPreviewExperiment-master/procedure/subject-16.csv","legacy","Kafkaesque Koffka","3.2.6","add","0","a","NA","NA","l","l","3770","NA","NA","9249","3770","2","991","legacy","large","1024","2","48000","-16","experiment","8_4_add_FI.jpg","16","even","legacy","238214","NA","47120","NA","NA","1928","NA","1944","43349","238214","240345","11194","41429","1930","mousetracking operator preview effect","0","0","0","no","false","no","1680"
"negative","undefined","1","undefined","undefined","white","no","legacy","legacy","legacy","0","relative","undefined","undefined","69","NA","0","0","0","0","0","0","0","85","85","0","15","0","no","04/08/19 10:50:57","A simple template for the mouse-tracking paradigm","yes","Experiment-FT.osexp","C:\Users\Kristen\Documents\opPreviewExperiment-master\procedure","no","mono","no","24","no","black","no","yes","1050","legacy","69","15","C:/Users/Kristen/Documents/opPreviewExperiment-master/procedure/subject-16.csv","legacy","Kafkaesque Koffka","3.2.6","add","0","l","NA","NA","l","l","3770","NA","NA","9249","3770","2","1606","legacy","large","1024","2","48000","-16","experiment","6_8_add_true.jpg","16","even","legacy","240375","NA","47120","NA","NA","1928","NA","1944","43349","240375","243129","11194","41429","1930","mousetracking operator preview effect","0","0","0","no","true","no","1680"
"negative","undefined","1","undefined","undefined","white","no","legacy","legacy","legacy","0","relative","undefined","undefined","70","NA","0","0","0","0","0","0","0","86","86","0","15","0","no","04/08/19 10:50:57","A simple template for the mouse-tracking paradigm","yes","Experiment-FT.osexp","C:\Users\Kristen\Documents\opPreviewExperiment-master\procedure","no","mono","no","24","no","black","no","yes","1050","legacy","70","15","C:/Users/Kristen/Documents/opPreviewExperiment-master/procedure/subject-16.csv","legacy","Kafkaesque Koffka","3.2.6","add","0","a","NA","NA","l","l","3770","NA","NA","9249","3770","2","2641","legacy","large","1024","2","48000","-16","experiment","9_7_add_FNI.jpg","16","even","legacy","243156","NA","47120","NA","NA","1928","NA","1944","43349","243156","246941","11194","41429","1930","mousetracking operator preview effect","0","0","0","no","false","no","1680"
"neutral","undefined","1","undefined","undefined","white","no","legacy","legacy","legacy","0","relative","undefined","undefined","71","NA","0","0","0","0","0","0","0","87","87","0","15","0","no","04/08/19 10:50:57","A simple template for the mouse-tracking paradigm","yes","Experiment-FT.osexp","C:\Users\Kristen\Documents\opPreviewExperiment-master\procedure","no","mono","no","24","no","black","no","yes","1050","legacy","71","15","C:/Users/Kristen/Documents/opPreviewExperiment-master/procedure/subject-16.csv","legacy","Kafkaesque Koffka","3.2.6","add","0","a","NA","NA","l","l","3770","NA","NA","9249","3770","2","1319","legacy","small","1024","2","48000","-16","experiment","3_6_add_FI.jpg","16","even","legacy","246965","NA","47120","NA","NA","1928","NA","1944","43349","246965","249256","11194","41429","1930","mousetracking operator preview effect","0","0","0","no","false","no","1680"
"neutral","undefined","1","undefined","undefined","white","no","legacy","legacy","legacy","0","relative","undefined","undefined","72","NA","0","0","0","0","0","0","0","88","88","0","15","0","no","04/08/19 10:50:57","A simple template for the mouse-tracking paradigm","yes","Experiment-FT.osexp","C:\Users\Kristen\Documents\opPreviewExperiment-master\procedure","no","mono","no","24","no","black","no","yes","1050","legacy","72","15","C:/Users/Kristen/Documents/opPreviewExperiment-master/procedure/subject-16.csv","legacy","Kafkaesque Koffka","3.2.6","mult","0","a","NA","NA","l","l","3770","NA","NA","9249","3770","2","1237","legacy","small","1024","2","48000","-16","experiment","8_2_mult_FNI.jpg","16","even","legacy","249276","NA","47120","NA","NA","1928","NA","1944","43349","249276","251473","11194","41429","1930","mousetracking operator preview effect","0","0","0","no","false","no","1680"
"neutral","undefined","1","undefined","undefined","white","no","legacy","legacy","legacy","0","relative","undefined","undefined","73","NA","0","0","0","0","0","0","0","89","89","0","15","0","no","04/08/19 10:50:57","A simple template for the mouse-tracking paradigm","yes","Experiment-FT.osexp","C:\Users\Kristen\Documents\opPreviewExperiment-master\procedure","no","mono","no","24","no","black","no","yes","1050","legacy","73","15","C:/Users/Kristen/Documents/opPreviewExperiment-master/procedure/subject-16.csv","legacy","Kafkaesque Koffka","3.2.6","add","0","l","NA","NA","l","l","3770","NA","NA","9249","3770","2","3970","legacy","large","1024","2","48000","-16","experiment","4_9_add_true.jpg","16","even","legacy","251495","NA","47120","NA","NA","1928","NA","1944","43349","251495","256435","11194","41429","1930","mousetracking operator preview effect","0","0","0","no","true","no","1680"
"neutral","undefined","1","undefined","undefined","white","no","legacy","legacy","legacy","0","relative","undefined","undefined","74","NA","0","0","0","0","0","0","0","90","90","0","15","0","no","04/08/19 10:50:57","A simple template for the mouse-tracking paradigm","yes","Experiment-FT.osexp","C:\Users\Kristen\Documents\opPreviewExperiment-master\procedure","no","mono","no","24","no","black","no","yes","1050","legacy","74","15","C:/Users/Kristen/Documents/opPreviewExperiment-master/procedure/subject-16.csv","legacy","Kafkaesque Koffka","3.2.6","add","0","a","NA","NA","l","l","3770","NA","NA","9249","3770","2","811","legacy","large","1024","2","48000","-16","experiment","4_9_add_FI.jpg","16","even","legacy","256450","NA","47120","NA","NA","1928","NA","1944","43349","256450","258233","11194","41429","1930","mousetracking operator preview effect","0","0","0","no","false","no","1680"
"negative","undefined","1","undefined","undefined","white","no","legacy","legacy","legacy","0","relative","undefined","undefined","75","NA","0","0","0","0","0","0","0","91","91","0","15","0","no","04/08/19 10:50:57","A simple template for the mouse-tracking paradigm","yes","Experiment-FT.osexp","C:\Users\Kristen\Documents\opPreviewExperiment-master\procedure","no","mono","no","24","no","black","no","yes","1050","legacy","75","15","C:/Users/Kristen/Documents/opPreviewExperiment-master/procedure/subject-16.csv","legacy","Kafkaesque Koffka","3.2.6","mult","0","a","NA","NA","l","l","3770","NA","NA","9249","3770","2","1675","legacy","small","1024","2","48000","-16","experiment","8_2_mult_FI.jpg","16","even","legacy","258256","NA","47120","NA","NA","1928","NA","1944","43349","258256","261077","11194","41429","1930","mousetracking operator preview effect","0","0","0","no","false","no","1680"
"negative","undefined","1","undefined","undefined","white","no","legacy","legacy","legacy","0","relative","undefined","undefined","76","NA","0","0","0","0","0","0","0","92","92","0","15","0","no","04/08/19 10:50:57","A simple template for the mouse-tracking paradigm","yes","Experiment-FT.osexp","C:\Users\Kristen\Documents\opPreviewExperiment-master\procedure","no","mono","no","24","no","black","no","yes","1050","legacy","76","15","C:/Users/Kristen/Documents/opPreviewExperiment-master/procedure/subject-16.csv","legacy","Kafkaesque Koffka","3.2.6","mult","0","a","NA","NA","l","l","3770","NA","NA","9249","3770","2","1305","legacy","large","1024","2","48000","-16","experiment","6_8_mult_FI.jpg","16","even","legacy","261104","NA","47120","NA","NA","1928","NA","1944","43349","261104","263555","11194","41429","1930","mousetracking operator preview effect","0","0","0","no","false","no","1680"
"neutral","undefined","1","undefined","undefined","white","no","legacy","legacy","legacy","0","relative","undefined","undefined","77","NA","0","0","0","0","0","0","0","93","93","0","15","0","no","04/08/19 10:50:57","A simple template for the mouse-tracking paradigm","yes","Experiment-FT.osexp","C:\Users\Kristen\Documents\opPreviewExperiment-master\procedure","no","mono","no","24","no","black","no","yes","1050","legacy","77","15","C:/Users/Kristen/Documents/opPreviewExperiment-master/procedure/subject-16.csv","legacy","Kafkaesque Koffka","3.2.6","add","0","a","NA","NA","l","l","3770","NA","NA","9249","3770","2","1107","legacy","small","1024","2","48000","-16","experiment","2_7_add_FI.jpg","16","even","legacy","263583","NA","47120","NA","NA","1928","NA","1944","43349","263583","265664","11194","41429","1930","mousetracking operator preview effect","0","0","0","no","false","no","1680"
"negative","undefined","1","undefined","undefined","white","no","legacy","legacy","legacy","0","relative","undefined","undefined","78","NA","0","0","0","0","0","0","0","94","94","0","15","0","no","04/08/19 10:50:57","A simple template for the mouse-tracking paradigm","yes","Experiment-FT.osexp","C:\Users\Kristen\Documents\opPreviewExperiment-master\procedure","no","mono","no","24","no","black","no","yes","1050","legacy","78","15","C:/Users/Kristen/Documents/opPreviewExperiment-master/procedure/subject-16.csv","legacy","Kafkaesque Koffka","3.2.6","mult","0","l","NA","NA","l","l","3770","NA","NA","9249","3770","2","2020","legacy","large","1024","2","48000","-16","experiment","8_4_mult_true.jpg","16","even","legacy","265687","NA","47120","NA","NA","1928","NA","1944","43349","265687","268847","11194","41429","1930","mousetracking operator preview effect","0","0","0","no","true","no","1680"
"negative","undefined","1","undefined","undefined","white","no","legacy","legacy","legacy","0","relative","undefined","undefined","79","NA","0","0","0","0","0","0","0","95","95","0","15","0","no","04/08/19 10:50:57","A simple template for the mouse-tracking paradigm","yes","Experiment-FT.osexp","C:\Users\Kristen\Documents\opPreviewExperiment-master\procedure","no","mono","no","24","no","black","no","yes","1050","legacy","79","15","C:/Users/Kristen/Documents/opPreviewExperiment-master/procedure/subject-16.csv","legacy","Kafkaesque Koffka","3.2.6","add","0","a","NA","NA","l","l","3770","NA","NA","9249","3770","2","1281","legacy","large","1024","2","48000","-16","experiment","9_7_add_FI.jpg","16","even","legacy","268869","NA","47120","NA","NA","1928","NA","1944","43349","268869","271294","11194","41429","1930","mousetracking operator preview effect","0","0","0","no","false","no","1680"
"negative","undefined","1","undefined","undefined","white","no","legacy","legacy","legacy","0","relative","undefined","undefined","80","NA","0","0","0","0","0","0","0","96","96","0","15","0","no","04/08/19 10:50:57","A simple template for the mouse-tracking paradigm","yes","Experiment-FT.osexp","C:\Users\Kristen\Documents\opPreviewExperiment-master\procedure","no","mono","no","24","no","black","no","yes","1050","legacy","80","15","C:/Users/Kristen/Documents/opPreviewExperiment-master/procedure/subject-16.csv","legacy","Kafkaesque Koffka","3.2.6","mult","0","l","NA","NA","l","l","3770","NA","NA","9249","3770","2","972","legacy","large","1024","2","48000","-16","experiment","4_9_mult_true.jpg","16","even","legacy","271325","NA","47120","NA","NA","1928","NA","1944","43349","271325","273444","11194","41429","1930","mousetracking operator preview effect","0","0","0","no","true","no","1680"
"negative","undefined","1","undefined","undefined","white","no","legacy","legacy","legacy","0","relative","undefined","undefined","81","NA","0","0","0","0","0","0","0","97","97","0","15","0","no","04/08/19 10:50:57","A simple template for the mouse-tracking paradigm","yes","Experiment-FT.osexp","C:\Users\Kristen\Documents\opPreviewExperiment-master\procedure","no","mono","no","24","no","black","no","yes","1050","legacy","81","15","C:/Users/Kristen/Documents/opPreviewExperiment-master/procedure/subject-16.csv","legacy","Kafkaesque Koffka","3.2.6","mult","0","a","NA","NA","l","l","3770","NA","NA","9249","3770","2","935","legacy","small","1024","2","48000","-16","experiment","3_6_mult_FI.jpg","16","even","legacy","273465","NA","47120","NA","NA","1928","NA","1944","43349","273466","275544","11194","41429","1930","mousetracking operator preview effect","0","0","0","no","false","no","1680"
"neutral","undefined","1","undefined","undefined","white","no","legacy","legacy","legacy","0","relative","undefined","undefined","82","NA","0","0","0","0","0","0","0","98","98","0","15","0","no","04/08/19 10:50:57","A simple template for the mouse-tracking paradigm","yes","Experiment-FT.osexp","C:\Users\Kristen\Documents\opPreviewExperiment-master\procedure","no","mono","no","24","no","black","no","yes","1050","legacy","82","15","C:/Users/Kristen/Documents/opPreviewExperiment-master/procedure/subject-16.csv","legacy","Kafkaesque Koffka","3.2.6","mult","0","l","NA","NA","l","l","3770","NA","NA","9249","3770","2","1419","legacy","large","1024","2","48000","-16","experiment","6_8_mult_true.jpg","16","even","legacy","275564","NA","47120","NA","NA","1928","NA","1944","43349","275564","277958","11194","41429","1930","mousetracking operator preview effect","0","0","0","no","true","no","1680"
"neutral","undefined","1","undefined","undefined","white","no","legacy","legacy","legacy","0","relative","undefined","undefined","83","NA","0","0","0","0","0","0","0","99","99","0","15","0","no","04/08/19 10:50:57","A simple template for the mouse-tracking paradigm","yes","Experiment-FT.osexp","C:\Users\Kristen\Documents\opPreviewExperiment-master\procedure","no","mono","no","24","no","black","no","yes","1050","legacy","83","15","C:/Users/Kristen/Documents/opPreviewExperiment-master/procedure/subject-16.csv","legacy","Kafkaesque Koffka","3.2.6","mult","0","l","NA","NA","l","l","3770","NA","NA","9249","3770","2","1133","legacy","small","1024","2","48000","-16","experiment","2_7_mult_true.jpg","16","even","legacy","277984","NA","47120","NA","NA","1928","NA","1944","43349","277984","280097","11194","41429","1930","mousetracking operator preview effect","0","0","0","no","true","no","1680"
"neutral","undefined","1","undefined","undefined","white","no","legacy","legacy","legacy","0","relative","undefined","undefined","84","NA","0","0","0","0","0","0","0","100","100","0","15","0","no","04/08/19 10:50:57","A simple template for the mouse-tracking paradigm","yes","Experiment-FT.osexp","C:\Users\Kristen\Documents\opPreviewExperiment-master\procedure","no","mono","no","24","no","black","no","yes","1050","legacy","84","15","C:/Users/Kristen/Documents/opPreviewExperiment-master/procedure/subject-16.csv","legacy","Kafkaesque Koffka","3.2.6","add","0","a","NA","NA","l","l","3770","NA","NA","9249","3770","2","1896","legacy","large","1024","2","48000","-16","experiment","8_4_add_FI.jpg","16","even","legacy","280117","NA","47120","NA","NA","1928","NA","1944","43349","280117","282988","11194","41429","1930","mousetracking operator preview effect","0","0","0","no","false","no","1680"
"neutral","undefined","0","undefined","undefined","white","no","legacy","legacy","legacy","0","relative","undefined","undefined","85","NA","0","0","0","0","0","0","0","101","101","0","15","0","no","04/08/19 10:50:57","A simple template for the mouse-tracking paradigm","yes","Experiment-FT.osexp","C:\Users\Kristen\Documents\opPreviewExperiment-master\procedure","no","mono","no","24","no","black","no","yes","1050","legacy","85","15","C:/Users/Kristen/Documents/opPreviewExperiment-master/procedure/subject-16.csv","legacy","Kafkaesque Koffka","3.2.6","add","0","l","NA","NA","l","l","3770","NA","NA","9249","3770","2","1523","legacy","large","1024","2","48000","-16","experiment","9_7_add_FNI.jpg","16","even","legacy","283001","NA","47120","NA","NA","1928","NA","1944","43349","283001","286513","11194","41429","1930","mousetracking operator preview effect","0","0","0","no","false","no","1680"
"negative","undefined","1","undefined","undefined","white","no","legacy","legacy","legacy","0","relative","undefined","undefined","86","NA","0","0","0","0","0","0","0","102","102","0","15","0","no","04/08/19 10:50:57","A simple template for the mouse-tracking paradigm","yes","Experiment-FT.osexp","C:\Users\Kristen\Documents\opPreviewExperiment-master\procedure","no","mono","no","24","no","black","no","yes","1050","legacy","86","15","C:/Users/Kristen/Documents/opPreviewExperiment-master/procedure/subject-16.csv","legacy","Kafkaesque Koffka","3.2.6","mult","0","l","NA","NA","l","l","3770","NA","NA","9249","3770","2","960","legacy","small","1024","2","48000","-16","experiment","2_7_mult_true.jpg","16","even","legacy","286549","NA","47120","NA","NA","1928","NA","1944","43349","286551","288656","11194","41429","1930","mousetracking operator preview effect","0","0","0","no","true","no","1680"
"negative","undefined","1","undefined","undefined","white","no","legacy","legacy","legacy","0","relative","undefined","undefined","87","NA","0","0","0","0","0","0","0","103","103","0","15","0","no","04/08/19 10:50:57","A simple template for the mouse-tracking paradigm","yes","Experiment-FT.osexp","C:\Users\Kristen\Documents\opPreviewExperiment-master\procedure","no","mono","no","24","no","black","no","yes","1050","legacy","87","15","C:/Users/Kristen/Documents/opPreviewExperiment-master/procedure/subject-16.csv","legacy","Kafkaesque Koffka","3.2.6","mult","0","l","NA","NA","l","l","3770","NA","NA","9249","3770","2","1024","legacy","small","1024","2","48000","-16","experiment","3_6_mult_true.jpg","16","even","legacy","288690","NA","47120","NA","NA","1928","NA","1944","43349","288690","290851","11194","41429","1930","mousetracking operator preview effect","0","0","0","no","true","no","1680"
"negative","undefined","0","undefined","undefined","white","no","legacy","legacy","legacy","0","relative","undefined","undefined","88","NA","0","0","0","0","0","0","0","104","104","0","15","0","no","04/08/19 10:50:57","A simple template for the mouse-tracking paradigm","yes","Experiment-FT.osexp","C:\Users\Kristen\Documents\opPreviewExperiment-master\procedure","no","mono","no","24","no","black","no","yes","1050","legacy","88","15","C:/Users/Kristen/Documents/opPreviewExperiment-master/procedure/subject-16.csv","legacy","Kafkaesque Koffka","3.2.6","add","0","l","NA","NA","l","l","3770","NA","NA","9249","3770","2","1031","legacy","large","1024","2","48000","-16","experiment","8_4_add_FNI.jpg","16","even","legacy","290875","NA","47120","NA","NA","1928","NA","1944","43349","290875","294069","11194","41429","1930","mousetracking operator preview effect","0","0","0","no","false","no","1680"
"negative","undefined","1","undefined","undefined","white","no","legacy","legacy","legacy","0","relative","undefined","undefined","89","NA","0","0","0","0","0","0","0","105","105","0","15","0","no","04/08/19 10:50:57","A simple template for the mouse-tracking paradigm","yes","Experiment-FT.osexp","C:\Users\Kristen\Documents\opPreviewExperiment-master\procedure","no","mono","no","24","no","black","no","yes","1050","legacy","89","15","C:/Users/Kristen/Documents/opPreviewExperiment-master/procedure/subject-16.csv","legacy","Kafkaesque Koffka","3.2.6","add","0","a","NA","NA","l","l","3770","NA","NA","9249","3770","2","1675","legacy","large","1024","2","48000","-16","experiment","4_9_add_FI.jpg","16","even","legacy","294105","NA","47120","NA","NA","1928","NA","1944","43349","294106","296912","11194","41429","1930","mousetracking operator preview effect","0","0","0","no","false","no","1680"
"negative","undefined","1","undefined","undefined","white","no","legacy","legacy","legacy","0","relative","undefined","undefined","90","NA","0","0","0","0","0","0","0","106","106","0","15","0","no","04/08/19 10:50:57","A simple template for the mouse-tracking paradigm","yes","Experiment-FT.osexp","C:\Users\Kristen\Documents\opPreviewExperiment-master\procedure","no","mono","no","24","no","black","no","yes","1050","legacy","90","15","C:/Users/Kristen/Documents/opPreviewExperiment-master/procedure/subject-16.csv","legacy","Kafkaesque Koffka","3.2.6","mult","0","l","NA","NA","l","l","3770","NA","NA","9249","3770","2","1285","legacy","small","1024","2","48000","-16","experiment","8_2_mult_true.jpg","16","even","legacy","296940","NA","47120","NA","NA","1928","NA","1944","43349","296940","299371","11194","41429","1930","mousetracking operator preview effect","0","0","0","no","true","no","1680"
"neutral","undefined","1","undefined","undefined","white","no","legacy","legacy","legacy","0","relative","undefined","undefined","91","NA","0","0","0","0","0","0","0","107","107","0","15","0","no","04/08/19 10:50:57","A simple template for the mouse-tracking paradigm","yes","Experiment-FT.osexp","C:\Users\Kristen\Documents\opPreviewExperiment-master\procedure","no","mono","no","24","no","black","no","yes","1050","legacy","91","15","C:/Users/Kristen/Documents/opPreviewExperiment-master/procedure/subject-16.csv","legacy","Kafkaesque Koffka","3.2.6","mult","0","l","NA","NA","l","l","3770","NA","NA","9249","3770","2","1599","legacy","small","1024","2","48000","-16","experiment","5_3_mult_true.jpg","16","even","legacy","299391","NA","47120","NA","NA","1928","NA","1944","43349","299391","301963","11194","41429","1930","mousetracking operator preview effect","0","0","0","no","true","no","1680"
"negative","undefined","0","undefined","undefined","white","no","legacy","legacy","legacy","0","relative","undefined","undefined","92","NA","0","0","0","0","0","0","0","108","108","0","15","0","no","04/08/19 10:50:57","A simple template for the mouse-tracking paradigm","yes","Experiment-FT.osexp","C:\Users\Kristen\Documents\opPreviewExperiment-master\procedure","no","mono","no","24","no","black","no","yes","1050","legacy","92","15","C:/Users/Kristen/Documents/opPreviewExperiment-master/procedure/subject-16.csv","legacy","Kafkaesque Koffka","3.2.6","add","0","l","NA","NA","l","l","3770","NA","NA","9249","3770","2","1563","legacy","large","1024","2","48000","-16","experiment","4_9_add_FNI.jpg","16","even","legacy","301984","NA","47120","NA","NA","1928","NA","1944","43349","301984","305705","11194","41429","1930","mousetracking operator preview effect","0","0","0","no","false","no","1680"
