"SOAcondition","acc","accuracy","average_response_time","avg_rt","background","bidi","canvas_backend","clock_backend","color_backend","compensation","coordinates","correct","correct_instruction1","count_block1_sequence","count_block2_sequence","count_block_1","count_block_2","count_breakScreen","count_experiment","count_finish","count_instruction1","count_instruction2","count_keyboard_script","count_logger","count_practiceBlock","count_practice_sequence","count_setup_script","custom_cursor","datetime","description","disable_garbage_collection","experiment_file","experiment_path","font_bold","font_family","font_italic","font_size","font_underline","foreground","form_clicks","fullscreen","height","keyboard_backend","live_row","live_row_practiceBlock","logfile","mouse_backend","opensesame_codename","opensesame_version","operation","repeat_cycle","response","response_breakScreen","response_finish","response_instruction1","response_instruction2","response_time","response_time_breakScreen","response_time_finish","response_time_instruction1","response_time_instruction2","round_decimals","rt","sampler_backend","size","sound_buf_size","sound_channels","sound_freq","sound_sample_size","start","stimulus","subject_nr","subject_parity","synth_backend","time_block1_sequence","time_block2_sequence","time_block_1","time_block_2","time_breakScreen","time_experiment","time_finish","time_instruction1","time_instruction2","time_keyboard_script","time_logger","time_practiceBlock","time_practice_sequence","time_setup_script","title","total_correct","total_response_time","total_responses","transparent_variables","truth","uniform_coordinates","width"
"neutral","undefined","1","undefined","undefined","white","no","legacy","legacy","legacy","0","relative","undefined","undefined","NA","NA","0","0","0","0","0","0","0","0","0","0","0","0","no","03/08/19 09:41:41","A simple template for the mouse-tracking paradigm","yes","Experiment-TF.osexp","C:\Users\Kristen\Documents\opPreviewExperiment-master\procedure","no","mono","no","24","no","black","no","yes","1050","legacy","0","0","C:/Users/Kristen/Documents/opPreviewExperiment-master/procedure/subject-4.csv","legacy","Kafkaesque Koffka","3.2.6","add","0","l","NA","NA","l","NA","17162","NA","NA","17162","NA","2","1897","legacy","NA","1024","2","48000","-16","experiment","1_4_add_F.jpg","4","even","legacy","NA","NA","NA","NA","NA","1856","NA","1869","NA","19035","21901","19032","19035","1858","mousetracking operator preview effect","0","0","0","no","false","no","1680"
"neutral","undefined","1","undefined","undefined","white","no","legacy","legacy","legacy","0","relative","undefined","undefined","NA","NA","0","0","0","0","0","0","0","1","1","0","1","0","no","03/08/19 09:41:41","A simple template for the mouse-tracking paradigm","yes","Experiment-TF.osexp","C:\Users\Kristen\Documents\opPreviewExperiment-master\procedure","no","mono","no","24","no","black","no","yes","1050","legacy","1","1","C:/Users/Kristen/Documents/opPreviewExperiment-master/procedure/subject-4.csv","legacy","Kafkaesque Koffka","3.2.6","mult","0","l","NA","NA","l","NA","17162","NA","NA","17162","NA","2","2577","legacy","NA","1024","2","48000","-16","experiment","1_4_mult_F.jpg","4","even","legacy","NA","NA","NA","NA","NA","1856","NA","1869","NA","21928","25468","19032","21928","1858","mousetracking operator preview effect","0","0","0","no","false","no","1680"
"negative","undefined","1","undefined","undefined","white","no","legacy","legacy","legacy","0","relative","undefined","undefined","NA","NA","0","0","0","0","0","0","0","2","2","0","2","0","no","03/08/19 09:41:41","A simple template for the mouse-tracking paradigm","yes","Experiment-TF.osexp","C:\Users\Kristen\Documents\opPreviewExperiment-master\procedure","no","mono","no","24","no","black","no","yes","1050","legacy","2","2","C:/Users/Kristen/Documents/opPreviewExperiment-master/procedure/subject-4.csv","legacy","Kafkaesque Koffka","3.2.6","add","0","l","NA","NA","l","NA","17162","NA","NA","17162","NA","2","2608","legacy","NA","1024","2","48000","-16","experiment","1_4_add_F.jpg","4","even","legacy","NA","NA","NA","NA","NA","1856","NA","1869","NA","25493","29233","19032","25493","1858","mousetracking operator preview effect","0","0","0","no","false","no","1680"
"negative","undefined","1","undefined","undefined","white","no","legacy","legacy","legacy","0","relative","undefined","undefined","NA","NA","0","0","0","0","0","0","0","3","3","0","3","0","no","03/08/19 09:41:41","A simple template for the mouse-tracking paradigm","yes","Experiment-TF.osexp","C:\Users\Kristen\Documents\opPreviewExperiment-master\procedure","no","mono","no","24","no","black","no","yes","1050","legacy","3","3","C:/Users/Kristen/Documents/opPreviewExperiment-master/procedure/subject-4.csv","legacy","Kafkaesque Koffka","3.2.6","mult","0","l","NA","NA","l","NA","17162","NA","NA","17162","NA","2","1345","legacy","NA","1024","2","48000","-16","experiment","1_4_mult_F.jpg","4","even","legacy","NA","NA","NA","NA","NA","1856","NA","1869","NA","29254","31732","19032","29254","1858","mousetracking operator preview effect","0","0","0","no","false","no","1680"
"neutral","undefined","1","undefined","undefined","white","no","legacy","legacy","legacy","0","relative","undefined","undefined","NA","NA","0","0","0","0","0","0","0","4","4","0","4","0","no","03/08/19 09:41:41","A simple template for the mouse-tracking paradigm","yes","Experiment-TF.osexp","C:\Users\Kristen\Documents\opPreviewExperiment-master\procedure","no","mono","no","24","no","black","no","yes","1050","legacy","4","4","C:/Users/Kristen/Documents/opPreviewExperiment-master/procedure/subject-4.csv","legacy","Kafkaesque Koffka","3.2.6","add","0","a","NA","NA","l","NA","17162","NA","NA","17162","NA","2","992","legacy","NA","1024","2","48000","-16","experiment","0_3_add_T.jpg","4","even","legacy","NA","NA","NA","NA","NA","1856","NA","1869","NA","31756","33706","19032","31756","1858","mousetracking operator preview effect","0","0","0","no","true","no","1680"
"negative","undefined","1","undefined","undefined","white","no","legacy","legacy","legacy","0","relative","undefined","undefined","NA","NA","0","0","0","0","0","0","0","5","5","0","5","0","no","03/08/19 09:41:41","A simple template for the mouse-tracking paradigm","yes","Experiment-TF.osexp","C:\Users\Kristen\Documents\opPreviewExperiment-master\procedure","no","mono","no","24","no","black","no","yes","1050","legacy","5","5","C:/Users/Kristen/Documents/opPreviewExperiment-master/procedure/subject-4.csv","legacy","Kafkaesque Koffka","3.2.6","add","0","a","NA","NA","l","NA","17162","NA","NA","17162","NA","2","1283","legacy","NA","1024","2","48000","-16","experiment","0_3_add_T.jpg","4","even","legacy","NA","NA","NA","NA","NA","1856","NA","1869","NA","33733","36142","19032","33733","1858","mousetracking operator preview effect","0","0","0","no","true","no","1680"
"negative","undefined","1","undefined","undefined","white","no","legacy","legacy","legacy","0","relative","undefined","undefined","NA","NA","0","0","0","0","0","0","0","6","6","0","6","0","no","03/08/19 09:41:41","A simple template for the mouse-tracking paradigm","yes","Experiment-TF.osexp","C:\Users\Kristen\Documents\opPreviewExperiment-master\procedure","no","mono","no","24","no","black","no","yes","1050","legacy","6","6","C:/Users/Kristen/Documents/opPreviewExperiment-master/procedure/subject-4.csv","legacy","Kafkaesque Koffka","3.2.6","mult","0","l","NA","NA","l","NA","17162","NA","NA","17162","NA","2","1257","legacy","NA","1024","2","48000","-16","experiment","0_3_mult_F.jpg","4","even","legacy","NA","NA","NA","NA","NA","1856","NA","1869","NA","36169","38564","19032","36169","1858","mousetracking operator preview effect","0","0","0","no","false","no","1680"
"neutral","undefined","1","undefined","undefined","white","no","legacy","legacy","legacy","0","relative","undefined","undefined","NA","NA","0","0","0","0","0","0","0","7","7","0","7","0","no","03/08/19 09:41:41","A simple template for the mouse-tracking paradigm","yes","Experiment-TF.osexp","C:\Users\Kristen\Documents\opPreviewExperiment-master\procedure","no","mono","no","24","no","black","no","yes","1050","legacy","7","7","C:/Users/Kristen/Documents/opPreviewExperiment-master/procedure/subject-4.csv","legacy","Kafkaesque Koffka","3.2.6","add","0","l","NA","NA","l","NA","17162","NA","NA","17162","NA","2","1162","legacy","NA","1024","2","48000","-16","experiment","0_3_add_F.jpg","4","even","legacy","NA","NA","NA","NA","NA","1856","NA","1869","NA","38585","40707","19032","38585","1858","mousetracking operator preview effect","0","0","0","no","false","no","1680"
"neutral","undefined","1","undefined","undefined","white","no","legacy","legacy","legacy","0","relative","undefined","undefined","NA","NA","0","0","0","0","0","0","0","8","8","0","8","0","no","03/08/19 09:41:41","A simple template for the mouse-tracking paradigm","yes","Experiment-TF.osexp","C:\Users\Kristen\Documents\opPreviewExperiment-master\procedure","no","mono","no","24","no","black","no","yes","1050","legacy","8","8","C:/Users/Kristen/Documents/opPreviewExperiment-master/procedure/subject-4.csv","legacy","Kafkaesque Koffka","3.2.6","mult","0","a","NA","NA","l","NA","17162","NA","NA","17162","NA","2","1152","legacy","NA","1024","2","48000","-16","experiment","1_4_mult_T.jpg","4","even","legacy","NA","NA","NA","NA","NA","1856","NA","1869","NA","40727","42834","19032","40727","1858","mousetracking operator preview effect","0","0","0","no","true","no","1680"
"negative","undefined","1","undefined","undefined","white","no","legacy","legacy","legacy","0","relative","undefined","undefined","NA","NA","0","0","0","0","0","0","0","9","9","0","9","0","no","03/08/19 09:41:41","A simple template for the mouse-tracking paradigm","yes","Experiment-TF.osexp","C:\Users\Kristen\Documents\opPreviewExperiment-master\procedure","no","mono","no","24","no","black","no","yes","1050","legacy","9","9","C:/Users/Kristen/Documents/opPreviewExperiment-master/procedure/subject-4.csv","legacy","Kafkaesque Koffka","3.2.6","add","0","a","NA","NA","l","NA","17162","NA","NA","17162","NA","2","1412","legacy","NA","1024","2","48000","-16","experiment","1_4_add_T.jpg","4","even","legacy","NA","NA","NA","NA","NA","1856","NA","1869","NA","42855","45388","19032","42855","1858","mousetracking operator preview effect","0","0","0","no","true","no","1680"
"negative","undefined","1","undefined","undefined","white","no","legacy","legacy","legacy","0","relative","undefined","undefined","NA","NA","0","0","0","0","0","0","0","10","10","0","10","0","no","03/08/19 09:41:41","A simple template for the mouse-tracking paradigm","yes","Experiment-TF.osexp","C:\Users\Kristen\Documents\opPreviewExperiment-master\procedure","no","mono","no","24","no","black","no","yes","1050","legacy","10","10","C:/Users/Kristen/Documents/opPreviewExperiment-master/procedure/subject-4.csv","legacy","Kafkaesque Koffka","3.2.6","mult","0","a","NA","NA","l","NA","17162","NA","NA","17162","NA","2","1208","legacy","NA","1024","2","48000","-16","experiment","0_3_mult_T.jpg","4","even","legacy","NA","NA","NA","NA","NA","1856","NA","1869","NA","45408","47712","19032","45408","1858","mousetracking operator preview effect","0","0","0","no","true","no","1680"
"neutral","undefined","1","undefined","undefined","white","no","legacy","legacy","legacy","0","relative","undefined","undefined","NA","NA","0","0","0","0","0","0","0","11","11","0","11","0","no","03/08/19 09:41:41","A simple template for the mouse-tracking paradigm","yes","Experiment-TF.osexp","C:\Users\Kristen\Documents\opPreviewExperiment-master\procedure","no","mono","no","24","no","black","no","yes","1050","legacy","11","11","C:/Users/Kristen/Documents/opPreviewExperiment-master/procedure/subject-4.csv","legacy","Kafkaesque Koffka","3.2.6","mult","0","l","NA","NA","l","NA","17162","NA","NA","17162","NA","2","1085","legacy","NA","1024","2","48000","-16","experiment","0_3_mult_F.jpg","4","even","legacy","NA","NA","NA","NA","NA","1856","NA","1869","NA","47731","49781","19032","47731","1858","mousetracking operator preview effect","0","0","0","no","false","no","1680"
"negative","undefined","1","undefined","undefined","white","no","legacy","legacy","legacy","0","relative","undefined","undefined","NA","NA","0","0","0","0","0","0","0","12","12","0","12","0","no","03/08/19 09:41:41","A simple template for the mouse-tracking paradigm","yes","Experiment-TF.osexp","C:\Users\Kristen\Documents\opPreviewExperiment-master\procedure","no","mono","no","24","no","black","no","yes","1050","legacy","12","12","C:/Users/Kristen/Documents/opPreviewExperiment-master/procedure/subject-4.csv","legacy","Kafkaesque Koffka","3.2.6","add","0","l","NA","NA","l","NA","17162","NA","NA","17162","NA","2","1621","legacy","NA","1024","2","48000","-16","experiment","0_3_add_F.jpg","4","even","legacy","NA","NA","NA","NA","NA","1856","NA","1869","NA","49807","52539","19032","49807","1858","mousetracking operator preview effect","0","0","0","no","false","no","1680"
"neutral","undefined","1","undefined","undefined","white","no","legacy","legacy","legacy","0","relative","undefined","undefined","NA","NA","0","0","0","0","0","0","0","13","13","0","13","0","no","03/08/19 09:41:41","A simple template for the mouse-tracking paradigm","yes","Experiment-TF.osexp","C:\Users\Kristen\Documents\opPreviewExperiment-master\procedure","no","mono","no","24","no","black","no","yes","1050","legacy","13","13","C:/Users/Kristen/Documents/opPreviewExperiment-master/procedure/subject-4.csv","legacy","Kafkaesque Koffka","3.2.6","add","0","a","NA","NA","l","NA","17162","NA","NA","17162","NA","2","971","legacy","NA","1024","2","48000","-16","experiment","1_4_add_T.jpg","4","even","legacy","NA","NA","NA","NA","NA","1856","NA","1869","NA","52565","54502","19032","52565","1858","mousetracking operator preview effect","0","0","0","no","true","no","1680"
"negative","undefined","1","undefined","undefined","white","no","legacy","legacy","legacy","0","relative","undefined","undefined","NA","NA","0","0","0","0","0","0","0","14","14","0","14","0","no","03/08/19 09:41:41","A simple template for the mouse-tracking paradigm","yes","Experiment-TF.osexp","C:\Users\Kristen\Documents\opPreviewExperiment-master\procedure","no","mono","no","24","no","black","no","yes","1050","legacy","14","14","C:/Users/Kristen/Documents/opPreviewExperiment-master/procedure/subject-4.csv","legacy","Kafkaesque Koffka","3.2.6","mult","0","a","NA","NA","l","NA","17162","NA","NA","17162","NA","2","1088","legacy","NA","1024","2","48000","-16","experiment","1_4_mult_T.jpg","4","even","legacy","NA","NA","NA","NA","NA","1856","NA","1869","NA","54522","56746","19032","54522","1858","mousetracking operator preview effect","0","0","0","no","true","no","1680"
"neutral","undefined","1","undefined","undefined","white","no","legacy","legacy","legacy","0","relative","undefined","undefined","NA","NA","0","0","0","0","0","0","0","15","15","0","15","0","no","03/08/19 09:41:41","A simple template for the mouse-tracking paradigm","yes","Experiment-TF.osexp","C:\Users\Kristen\Documents\opPreviewExperiment-master\procedure","no","mono","no","24","no","black","no","yes","1050","legacy","15","15","C:/Users/Kristen/Documents/opPreviewExperiment-master/procedure/subject-4.csv","legacy","Kafkaesque Koffka","3.2.6","mult","0","a","NA","NA","l","NA","17162","NA","NA","17162","NA","2","1018","legacy","NA","1024","2","48000","-16","experiment","0_3_mult_T.jpg","4","even","legacy","NA","NA","NA","NA","NA","1856","NA","1869","NA","56772","58733","19032","56772","1858","mousetracking operator preview effect","0","0","0","no","true","no","1680"
"negative","undefined","1","undefined","undefined","white","no","legacy","legacy","legacy","0","relative","undefined","undefined","0","NA","0","0","0","0","0","0","0","16","16","0","15","0","no","03/08/19 09:41:41","A simple template for the mouse-tracking paradigm","yes","Experiment-TF.osexp","C:\Users\Kristen\Documents\opPreviewExperiment-master\procedure","no","mono","no","24","no","black","no","yes","1050","legacy","0","15","C:/Users/Kristen/Documents/opPreviewExperiment-master/procedure/subject-4.csv","legacy","Kafkaesque Koffka","3.2.6","mult","0","l","NA","NA","l","l","16610","NA","NA","17162","16610","2","1634","legacy","small","1024","2","48000","-16","experiment","5_3_mult_FNI.jpg","4","even","legacy","75372","NA","75368","NA","NA","1856","NA","1869","58757","75372","78121","19032","56772","1858","mousetracking operator preview effect","0","0","0","no","false","no","1680"
"neutral","undefined","1","undefined","undefined","white","no","legacy","legacy","legacy","0","relative","undefined","undefined","1","NA","0","0","0","0","0","0","0","17","17","0","15","0","no","03/08/19 09:41:41","A simple template for the mouse-tracking paradigm","yes","Experiment-TF.osexp","C:\Users\Kristen\Documents\opPreviewExperiment-master\procedure","no","mono","no","24","no","black","no","yes","1050","legacy","1","15","C:/Users/Kristen/Documents/opPreviewExperiment-master/procedure/subject-4.csv","legacy","Kafkaesque Koffka","3.2.6","add","0","a","NA","NA","l","l","16610","NA","NA","17162","16610","2","1286","legacy","small","1024","2","48000","-16","experiment","2_7_add_true.jpg","4","even","legacy","78142","NA","75368","NA","NA","1856","NA","1869","58757","78142","80388","19032","56772","1858","mousetracking operator preview effect","0","0","0","no","true","no","1680"
"neutral","undefined","0","undefined","undefined","white","no","legacy","legacy","legacy","0","relative","undefined","undefined","2","NA","0","0","0","0","0","0","0","18","18","0","15","0","no","03/08/19 09:41:41","A simple template for the mouse-tracking paradigm","yes","Experiment-TF.osexp","C:\Users\Kristen\Documents\opPreviewExperiment-master\procedure","no","mono","no","24","no","black","no","yes","1050","legacy","2","15","C:/Users/Kristen/Documents/opPreviewExperiment-master/procedure/subject-4.csv","legacy","Kafkaesque Koffka","3.2.6","add","0","l","NA","NA","l","l","16610","NA","NA","17162","16610","2","4359","legacy","large","1024","2","48000","-16","experiment","9_7_add_true.jpg","4","even","legacy","80408","NA","75368","NA","NA","1856","NA","1869","58757","80408","86753","19032","56772","1858","mousetracking operator preview effect","0","0","0","no","true","no","1680"
"negative","undefined","1","undefined","undefined","white","no","legacy","legacy","legacy","0","relative","undefined","undefined","3","NA","0","0","0","0","0","0","0","19","19","0","15","0","no","03/08/19 09:41:41","A simple template for the mouse-tracking paradigm","yes","Experiment-TF.osexp","C:\Users\Kristen\Documents\opPreviewExperiment-master\procedure","no","mono","no","24","no","black","no","yes","1050","legacy","3","15","C:/Users/Kristen/Documents/opPreviewExperiment-master/procedure/subject-4.csv","legacy","Kafkaesque Koffka","3.2.6","mult","0","l","NA","NA","l","l","16610","NA","NA","17162","16610","2","1368","legacy","small","1024","2","48000","-16","experiment","5_3_mult_FI.jpg","4","even","legacy","86774","NA","75368","NA","NA","1856","NA","1869","58757","86774","89273","19032","56772","1858","mousetracking operator preview effect","0","0","0","no","false","no","1680"
"negative","undefined","1","undefined","undefined","white","no","legacy","legacy","legacy","0","relative","undefined","undefined","4","NA","0","0","0","0","0","0","0","20","20","0","15","0","no","03/08/19 09:41:41","A simple template for the mouse-tracking paradigm","yes","Experiment-TF.osexp","C:\Users\Kristen\Documents\opPreviewExperiment-master\procedure","no","mono","no","24","no","black","no","yes","1050","legacy","4","15","C:/Users/Kristen/Documents/opPreviewExperiment-master/procedure/subject-4.csv","legacy","Kafkaesque Koffka","3.2.6","add","0","l","NA","NA","l","l","16610","NA","NA","17162","16610","2","1298","legacy","small","1024","2","48000","-16","experiment","2_7_add_FNI.jpg","4","even","legacy","89298","NA","75368","NA","NA","1856","NA","1869","58757","89298","91720","19032","56772","1858","mousetracking operator preview effect","0","0","0","no","false","no","1680"
"negative","undefined","1","undefined","undefined","white","no","legacy","legacy","legacy","0","relative","undefined","undefined","5","NA","0","0","0","0","0","0","0","21","21","0","15","0","no","03/08/19 09:41:41","A simple template for the mouse-tracking paradigm","yes","Experiment-TF.osexp","C:\Users\Kristen\Documents\opPreviewExperiment-master\procedure","no","mono","no","24","no","black","no","yes","1050","legacy","5","15","C:/Users/Kristen/Documents/opPreviewExperiment-master/procedure/subject-4.csv","legacy","Kafkaesque Koffka","3.2.6","add","0","l","NA","NA","l","l","16610","NA","NA","17162","16610","2","1129","legacy","small","1024","2","48000","-16","experiment","3_6_add_FI.jpg","4","even","legacy","91734","NA","75368","NA","NA","1856","NA","1869","58757","91734","93990","19032","56772","1858","mousetracking operator preview effect","0","0","0","no","false","no","1680"
"neutral","undefined","1","undefined","undefined","white","no","legacy","legacy","legacy","0","relative","undefined","undefined","6","NA","0","0","0","0","0","0","0","22","22","0","15","0","no","03/08/19 09:41:41","A simple template for the mouse-tracking paradigm","yes","Experiment-TF.osexp","C:\Users\Kristen\Documents\opPreviewExperiment-master\procedure","no","mono","no","24","no","black","no","yes","1050","legacy","6","15","C:/Users/Kristen/Documents/opPreviewExperiment-master/procedure/subject-4.csv","legacy","Kafkaesque Koffka","3.2.6","mult","0","a","NA","NA","l","l","16610","NA","NA","17162","16610","2","8349","legacy","large","1024","2","48000","-16","experiment","8_4_mult_true.jpg","4","even","legacy","94012","NA","75368","NA","NA","1856","NA","1869","58757","94012","103310","19032","56772","1858","mousetracking operator preview effect","0","0","0","no","true","no","1680"
"neutral","undefined","1","undefined","undefined","white","no","legacy","legacy","legacy","0","relative","undefined","undefined","7","NA","0","0","0","0","0","0","0","23","23","0","15","0","no","03/08/19 09:41:41","A simple template for the mouse-tracking paradigm","yes","Experiment-TF.osexp","C:\Users\Kristen\Documents\opPreviewExperiment-master\procedure","no","mono","no","24","no","black","no","yes","1050","legacy","7","15","C:/Users/Kristen/Documents/opPreviewExperiment-master/procedure/subject-4.csv","legacy","Kafkaesque Koffka","3.2.6","add","0","l","NA","NA","l","l","16610","NA","NA","17162","16610","2","1166","legacy","small","1024","2","48000","-16","experiment","5_3_add_FI.jpg","4","even","legacy","103338","NA","75368","NA","NA","1856","NA","1869","58757","103338","105465","19032","56772","1858","mousetracking operator preview effect","0","0","0","no","false","no","1680"
"negative","undefined","1","undefined","undefined","white","no","legacy","legacy","legacy","0","relative","undefined","undefined","8","NA","0","0","0","0","0","0","0","24","24","0","15","0","no","03/08/19 09:41:41","A simple template for the mouse-tracking paradigm","yes","Experiment-TF.osexp","C:\Users\Kristen\Documents\opPreviewExperiment-master\procedure","no","mono","no","24","no","black","no","yes","1050","legacy","8","15","C:/Users/Kristen/Documents/opPreviewExperiment-master/procedure/subject-4.csv","legacy","Kafkaesque Koffka","3.2.6","add","0","l","NA","NA","l","l","16610","NA","NA","17162","16610","2","2189","legacy","small","1024","2","48000","-16","experiment","3_6_add_FNI.jpg","4","even","legacy","105487","NA","75368","NA","NA","1856","NA","1869","58757","105487","108804","19032","56772","1858","mousetracking operator preview effect","0","0","0","no","false","no","1680"
"neutral","undefined","0","undefined","undefined","white","no","legacy","legacy","legacy","0","relative","undefined","undefined","9","NA","0","0","0","0","0","0","0","25","25","0","15","0","no","03/08/19 09:41:41","A simple template for the mouse-tracking paradigm","yes","Experiment-TF.osexp","C:\Users\Kristen\Documents\opPreviewExperiment-master\procedure","no","mono","no","24","no","black","no","yes","1050","legacy","9","15","C:/Users/Kristen/Documents/opPreviewExperiment-master/procedure/subject-4.csv","legacy","Kafkaesque Koffka","3.2.6","add","0","l","NA","NA","l","l","16610","NA","NA","17162","16610","2","949","legacy","small","1024","2","48000","-16","experiment","2_7_add_true.jpg","4","even","legacy","108826","NA","75368","NA","NA","1856","NA","1869","58757","108826","111754","19032","56772","1858","mousetracking operator preview effect","0","0","0","no","true","no","1680"
"neutral","undefined","1","undefined","undefined","white","no","legacy","legacy","legacy","0","relative","undefined","undefined","10","NA","0","0","0","0","0","0","0","26","26","0","15","0","no","03/08/19 09:41:41","A simple template for the mouse-tracking paradigm","yes","Experiment-TF.osexp","C:\Users\Kristen\Documents\opPreviewExperiment-master\procedure","no","mono","no","24","no","black","no","yes","1050","legacy","10","15","C:/Users/Kristen/Documents/opPreviewExperiment-master/procedure/subject-4.csv","legacy","Kafkaesque Koffka","3.2.6","mult","0","a","NA","NA","l","l","16610","NA","NA","17162","16610","2","1360","legacy","small","1024","2","48000","-16","experiment","5_3_mult_true.jpg","4","even","legacy","111786","NA","75368","NA","NA","1856","NA","1869","58757","111786","114114","19032","56772","1858","mousetracking operator preview effect","0","0","0","no","true","no","1680"
"neutral","undefined","1","undefined","undefined","white","no","legacy","legacy","legacy","0","relative","undefined","undefined","11","NA","0","0","0","0","0","0","0","27","27","0","15","0","no","03/08/19 09:41:41","A simple template for the mouse-tracking paradigm","yes","Experiment-TF.osexp","C:\Users\Kristen\Documents\opPreviewExperiment-master\procedure","no","mono","no","24","no","black","no","yes","1050","legacy","11","15","C:/Users/Kristen/Documents/opPreviewExperiment-master/procedure/subject-4.csv","legacy","Kafkaesque Koffka","3.2.6","add","0","l","NA","NA","l","l","16610","NA","NA","17162","16610","2","1216","legacy","small","1024","2","48000","-16","experiment","2_7_add_FI.jpg","4","even","legacy","114135","NA","75368","NA","NA","1856","NA","1869","58757","114135","116303","19032","56772","1858","mousetracking operator preview effect","0","0","0","no","false","no","1680"
"neutral","undefined","0","undefined","undefined","white","no","legacy","legacy","legacy","0","relative","undefined","undefined","12","NA","0","0","0","0","0","0","0","28","28","0","15","0","no","03/08/19 09:41:41","A simple template for the mouse-tracking paradigm","yes","Experiment-TF.osexp","C:\Users\Kristen\Documents\opPreviewExperiment-master\procedure","no","mono","no","24","no","black","no","yes","1050","legacy","12","15","C:/Users/Kristen/Documents/opPreviewExperiment-master/procedure/subject-4.csv","legacy","Kafkaesque Koffka","3.2.6","mult","0","l","NA","NA","l","l","16610","NA","NA","17162","16610","2","8711","legacy","large","1024","2","48000","-16","experiment","6_8_mult_true.jpg","4","even","legacy","116323","NA","75368","NA","NA","1856","NA","1869","58757","116323","127015","19032","56772","1858","mousetracking operator preview effect","0","0","0","no","true","no","1680"
"neutral","undefined","1","undefined","undefined","white","no","legacy","legacy","legacy","0","relative","undefined","undefined","13","NA","0","0","0","0","0","0","0","29","29","0","15","0","no","03/08/19 09:41:41","A simple template for the mouse-tracking paradigm","yes","Experiment-TF.osexp","C:\Users\Kristen\Documents\opPreviewExperiment-master\procedure","no","mono","no","24","no","black","no","yes","1050","legacy","13","15","C:/Users/Kristen/Documents/opPreviewExperiment-master/procedure/subject-4.csv","legacy","Kafkaesque Koffka","3.2.6","add","0","l","NA","NA","l","l","16610","NA","NA","17162","16610","2","2911","legacy","small","1024","2","48000","-16","experiment","5_3_add_FNI.jpg","4","even","legacy","127048","NA","75368","NA","NA","1856","NA","1869","58757","127049","130923","19032","56772","1858","mousetracking operator preview effect","0","0","0","no","false","no","1680"
"negative","undefined","1","undefined","undefined","white","no","legacy","legacy","legacy","0","relative","undefined","undefined","14","NA","0","0","0","0","0","0","0","30","30","0","15","0","no","03/08/19 09:41:41","A simple template for the mouse-tracking paradigm","yes","Experiment-TF.osexp","C:\Users\Kristen\Documents\opPreviewExperiment-master\procedure","no","mono","no","24","no","black","no","yes","1050","legacy","14","15","C:/Users/Kristen/Documents/opPreviewExperiment-master/procedure/subject-4.csv","legacy","Kafkaesque Koffka","3.2.6","mult","0","a","NA","NA","l","l","16610","NA","NA","17162","16610","2","1715","legacy","small","1024","2","48000","-16","experiment","3_6_mult_true.jpg","4","even","legacy","130947","NA","75368","NA","NA","1856","NA","1869","58757","130947","133776","19032","56772","1858","mousetracking operator preview effect","0","0","0","no","true","no","1680"
"negative","undefined","1","undefined","undefined","white","no","legacy","legacy","legacy","0","relative","undefined","undefined","15","NA","0","0","0","0","0","0","0","31","31","0","15","0","no","03/08/19 09:41:41","A simple template for the mouse-tracking paradigm","yes","Experiment-TF.osexp","C:\Users\Kristen\Documents\opPreviewExperiment-master\procedure","no","mono","no","24","no","black","no","yes","1050","legacy","15","15","C:/Users/Kristen/Documents/opPreviewExperiment-master/procedure/subject-4.csv","legacy","Kafkaesque Koffka","3.2.6","add","0","l","NA","NA","l","l","16610","NA","NA","17162","16610","2","1858","legacy","small","1024","2","48000","-16","experiment","5_3_add_FI.jpg","4","even","legacy","133804","NA","75368","NA","NA","1856","NA","1869","58757","133804","136774","19032","56772","1858","mousetracking operator preview effect","0","0","0","no","false","no","1680"
"neutral","undefined","1","undefined","undefined","white","no","legacy","legacy","legacy","0","relative","undefined","undefined","16","NA","0","0","0","0","0","0","0","32","32","0","15","0","no","03/08/19 09:41:41","A simple template for the mouse-tracking paradigm","yes","Experiment-TF.osexp","C:\Users\Kristen\Documents\opPreviewExperiment-master\procedure","no","mono","no","24","no","black","no","yes","1050","legacy","16","15","C:/Users/Kristen/Documents/opPreviewExperiment-master/procedure/subject-4.csv","legacy","Kafkaesque Koffka","3.2.6","add","0","l","NA","NA","l","l","16610","NA","NA","17162","16610","2","2455","legacy","small","1024","2","48000","-16","experiment","3_6_add_FI.jpg","4","even","legacy","136795","NA","75368","NA","NA","1856","NA","1869","58757","136795","140215","19032","56772","1858","mousetracking operator preview effect","0","0","0","no","false","no","1680"
"neutral","undefined","1","undefined","undefined","white","no","legacy","legacy","legacy","0","relative","undefined","undefined","17","NA","0","0","0","0","0","0","0","33","33","0","15","0","no","03/08/19 09:41:41","A simple template for the mouse-tracking paradigm","yes","Experiment-TF.osexp","C:\Users\Kristen\Documents\opPreviewExperiment-master\procedure","no","mono","no","24","no","black","no","yes","1050","legacy","17","15","C:/Users/Kristen/Documents/opPreviewExperiment-master/procedure/subject-4.csv","legacy","Kafkaesque Koffka","3.2.6","add","0","l","NA","NA","l","l","16610","NA","NA","17162","16610","2","2453","legacy","large","1024","2","48000","-16","experiment","8_4_add_FNI.jpg","4","even","legacy","140244","NA","75368","NA","NA","1856","NA","1869","58757","140244","143656","19032","56772","1858","mousetracking operator preview effect","0","0","0","no","false","no","1680"
"neutral","undefined","1","undefined","undefined","white","no","legacy","legacy","legacy","0","relative","undefined","undefined","18","NA","0","0","0","0","0","0","0","34","34","0","15","0","no","03/08/19 09:41:41","A simple template for the mouse-tracking paradigm","yes","Experiment-TF.osexp","C:\Users\Kristen\Documents\opPreviewExperiment-master\procedure","no","mono","no","24","no","black","no","yes","1050","legacy","18","15","C:/Users/Kristen/Documents/opPreviewExperiment-master/procedure/subject-4.csv","legacy","Kafkaesque Koffka","3.2.6","add","0","a","NA","NA","l","l","16610","NA","NA","17162","16610","2","2961","legacy","large","1024","2","48000","-16","experiment","4_9_add_true.jpg","4","even","legacy","143673","NA","75368","NA","NA","1856","NA","1869","58757","143673","147596","19032","56772","1858","mousetracking operator preview effect","0","0","0","no","true","no","1680"
"negative","undefined","1","undefined","undefined","white","no","legacy","legacy","legacy","0","relative","undefined","undefined","19","NA","0","0","0","0","0","0","0","35","35","0","15","0","no","03/08/19 09:41:41","A simple template for the mouse-tracking paradigm","yes","Experiment-TF.osexp","C:\Users\Kristen\Documents\opPreviewExperiment-master\procedure","no","mono","no","24","no","black","no","yes","1050","legacy","19","15","C:/Users/Kristen/Documents/opPreviewExperiment-master/procedure/subject-4.csv","legacy","Kafkaesque Koffka","3.2.6","add","0","l","NA","NA","l","l","16610","NA","NA","17162","16610","2","2562","legacy","large","1024","2","48000","-16","experiment","6_8_add_FNI.jpg","4","even","legacy","147623","NA","75368","NA","NA","1856","NA","1869","58757","147623","151317","19032","56772","1858","mousetracking operator preview effect","0","0","0","no","false","no","1680"
"negative","undefined","1","undefined","undefined","white","no","legacy","legacy","legacy","0","relative","undefined","undefined","20","NA","0","0","0","0","0","0","0","36","36","0","15","0","no","03/08/19 09:41:41","A simple template for the mouse-tracking paradigm","yes","Experiment-TF.osexp","C:\Users\Kristen\Documents\opPreviewExperiment-master\procedure","no","mono","no","24","no","black","no","yes","1050","legacy","20","15","C:/Users/Kristen/Documents/opPreviewExperiment-master/procedure/subject-4.csv","legacy","Kafkaesque Koffka","3.2.6","mult","0","a","NA","NA","l","l","16610","NA","NA","17162","16610","2","8659","legacy","large","1024","2","48000","-16","experiment","8_4_mult_true.jpg","4","even","legacy","151338","NA","75368","NA","NA","1856","NA","1869","58757","151338","161129","19032","56772","1858","mousetracking operator preview effect","0","0","0","no","true","no","1680"
"neutral","undefined","1","undefined","undefined","white","no","legacy","legacy","legacy","0","relative","undefined","undefined","21","NA","0","0","0","0","0","0","0","37","37","0","15","0","no","03/08/19 09:41:41","A simple template for the mouse-tracking paradigm","yes","Experiment-TF.osexp","C:\Users\Kristen\Documents\opPreviewExperiment-master\procedure","no","mono","no","24","no","black","no","yes","1050","legacy","21","15","C:/Users/Kristen/Documents/opPreviewExperiment-master/procedure/subject-4.csv","legacy","Kafkaesque Koffka","3.2.6","add","0","l","NA","NA","l","l","16610","NA","NA","17162","16610","2","1827","legacy","large","1024","2","48000","-16","experiment","6_8_add_FI.jpg","4","even","legacy","161154","NA","75368","NA","NA","1856","NA","1869","58757","161154","163944","19032","56772","1858","mousetracking operator preview effect","0","0","0","no","false","no","1680"
"neutral","undefined","1","undefined","undefined","white","no","legacy","legacy","legacy","0","relative","undefined","undefined","22","NA","0","0","0","0","0","0","0","38","38","0","15","0","no","03/08/19 09:41:41","A simple template for the mouse-tracking paradigm","yes","Experiment-TF.osexp","C:\Users\Kristen\Documents\opPreviewExperiment-master\procedure","no","mono","no","24","no","black","no","yes","1050","legacy","22","15","C:/Users/Kristen/Documents/opPreviewExperiment-master/procedure/subject-4.csv","legacy","Kafkaesque Koffka","3.2.6","add","0","l","NA","NA","l","l","16610","NA","NA","17162","16610","2","1826","legacy","small","1024","2","48000","-16","experiment","8_2_add_FNI.jpg","4","even","legacy","163968","NA","75368","NA","NA","1856","NA","1869","58757","163968","166756","19032","56772","1858","mousetracking operator preview effect","0","0","0","no","false","no","1680"
"negative","undefined","1","undefined","undefined","white","no","legacy","legacy","legacy","0","relative","undefined","undefined","23","NA","0","0","0","0","0","0","0","39","39","0","15","0","no","03/08/19 09:41:41","A simple template for the mouse-tracking paradigm","yes","Experiment-TF.osexp","C:\Users\Kristen\Documents\opPreviewExperiment-master\procedure","no","mono","no","24","no","black","no","yes","1050","legacy","23","15","C:/Users/Kristen/Documents/opPreviewExperiment-master/procedure/subject-4.csv","legacy","Kafkaesque Koffka","3.2.6","add","0","a","NA","NA","l","l","16610","NA","NA","17162","16610","2","901","legacy","small","1024","2","48000","-16","experiment","8_2_add_true.jpg","4","even","legacy","166781","NA","75368","NA","NA","1856","NA","1869","58757","166781","168813","19032","56772","1858","mousetracking operator preview effect","0","0","0","no","true","no","1680"
"negative","undefined","1","undefined","undefined","white","no","legacy","legacy","legacy","0","relative","undefined","undefined","24","NA","0","0","0","0","0","0","0","40","40","0","15","0","no","03/08/19 09:41:41","A simple template for the mouse-tracking paradigm","yes","Experiment-TF.osexp","C:\Users\Kristen\Documents\opPreviewExperiment-master\procedure","no","mono","no","24","no","black","no","yes","1050","legacy","24","15","C:/Users/Kristen/Documents/opPreviewExperiment-master/procedure/subject-4.csv","legacy","Kafkaesque Koffka","3.2.6","mult","0","l","NA","NA","l","l","16610","NA","NA","17162","16610","2","3182","legacy","large","1024","2","48000","-16","experiment","9_7_mult_FI.jpg","4","even","legacy","168838","NA","75368","NA","NA","1856","NA","1869","58757","168838","173148","19032","56772","1858","mousetracking operator preview effect","0","0","0","no","false","no","1680"
"neutral","undefined","1","undefined","undefined","white","no","legacy","legacy","legacy","0","relative","undefined","undefined","25","NA","0","0","0","0","0","0","0","41","41","0","15","0","no","03/08/19 09:41:41","A simple template for the mouse-tracking paradigm","yes","Experiment-TF.osexp","C:\Users\Kristen\Documents\opPreviewExperiment-master\procedure","no","mono","no","24","no","black","no","yes","1050","legacy","25","15","C:/Users/Kristen/Documents/opPreviewExperiment-master/procedure/subject-4.csv","legacy","Kafkaesque Koffka","3.2.6","mult","0","a","NA","NA","l","l","16610","NA","NA","17162","16610","2","3180","legacy","large","1024","2","48000","-16","experiment","9_7_mult_true.jpg","4","even","legacy","173164","NA","75368","NA","NA","1856","NA","1869","58757","173164","177306","19032","56772","1858","mousetracking operator preview effect","0","0","0","no","true","no","1680"
"negative","undefined","1","undefined","undefined","white","no","legacy","legacy","legacy","0","relative","undefined","undefined","26","NA","0","0","0","0","0","0","0","42","42","0","15","0","no","03/08/19 09:41:41","A simple template for the mouse-tracking paradigm","yes","Experiment-TF.osexp","C:\Users\Kristen\Documents\opPreviewExperiment-master\procedure","no","mono","no","24","no","black","no","yes","1050","legacy","26","15","C:/Users/Kristen/Documents/opPreviewExperiment-master/procedure/subject-4.csv","legacy","Kafkaesque Koffka","3.2.6","add","0","a","NA","NA","l","l","16610","NA","NA","17162","16610","2","1511","legacy","small","1024","2","48000","-16","experiment","5_3_add_true.jpg","4","even","legacy","177330","NA","75368","NA","NA","1856","NA","1869","58757","177330","179970","19032","56772","1858","mousetracking operator preview effect","0","0","0","no","true","no","1680"
"neutral","undefined","1","undefined","undefined","white","no","legacy","legacy","legacy","0","relative","undefined","undefined","27","NA","0","0","0","0","0","0","0","43","43","0","15","0","no","03/08/19 09:41:41","A simple template for the mouse-tracking paradigm","yes","Experiment-TF.osexp","C:\Users\Kristen\Documents\opPreviewExperiment-master\procedure","no","mono","no","24","no","black","no","yes","1050","legacy","27","15","C:/Users/Kristen/Documents/opPreviewExperiment-master/procedure/subject-4.csv","legacy","Kafkaesque Koffka","3.2.6","mult","0","l","NA","NA","l","l","16610","NA","NA","17162","16610","2","1757","legacy","small","1024","2","48000","-16","experiment","8_2_mult_FNI.jpg","4","even","legacy","179990","NA","75368","NA","NA","1856","NA","1869","58757","179990","182714","19032","56772","1858","mousetracking operator preview effect","0","0","0","no","false","no","1680"
"neutral","undefined","1","undefined","undefined","white","no","legacy","legacy","legacy","0","relative","undefined","undefined","28","NA","0","0","0","0","0","0","0","44","44","0","15","0","no","03/08/19 09:41:41","A simple template for the mouse-tracking paradigm","yes","Experiment-TF.osexp","C:\Users\Kristen\Documents\opPreviewExperiment-master\procedure","no","mono","no","24","no","black","no","yes","1050","legacy","28","15","C:/Users/Kristen/Documents/opPreviewExperiment-master/procedure/subject-4.csv","legacy","Kafkaesque Koffka","3.2.6","add","0","l","NA","NA","l","l","16610","NA","NA","17162","16610","2","2286","legacy","large","1024","2","48000","-16","experiment","4_9_add_FNI.jpg","4","even","legacy","182737","NA","75368","NA","NA","1856","NA","1869","58757","182737","185987","19032","56772","1858","mousetracking operator preview effect","0","0","0","no","false","no","1680"
"negative","undefined","1","undefined","undefined","white","no","legacy","legacy","legacy","0","relative","undefined","undefined","29","NA","0","0","0","0","0","0","0","45","45","0","15","0","no","03/08/19 09:41:41","A simple template for the mouse-tracking paradigm","yes","Experiment-TF.osexp","C:\Users\Kristen\Documents\opPreviewExperiment-master\procedure","no","mono","no","24","no","black","no","yes","1050","legacy","29","15","C:/Users/Kristen/Documents/opPreviewExperiment-master/procedure/subject-4.csv","legacy","Kafkaesque Koffka","3.2.6","add","0","l","NA","NA","l","l","16610","NA","NA","17162","16610","2","2000","legacy","large","1024","2","48000","-16","experiment","9_7_add_FI.jpg","4","even","legacy","186007","NA","75368","NA","NA","1856","NA","1869","58757","186007","189113","19032","56772","1858","mousetracking operator preview effect","0","0","0","no","false","no","1680"
"negative","undefined","1","undefined","undefined","white","no","legacy","legacy","legacy","0","relative","undefined","undefined","30","NA","0","0","0","0","0","0","0","46","46","0","15","0","no","03/08/19 09:41:41","A simple template for the mouse-tracking paradigm","yes","Experiment-TF.osexp","C:\Users\Kristen\Documents\opPreviewExperiment-master\procedure","no","mono","no","24","no","black","no","yes","1050","legacy","30","15","C:/Users/Kristen/Documents/opPreviewExperiment-master/procedure/subject-4.csv","legacy","Kafkaesque Koffka","3.2.6","add","0","a","NA","NA","l","l","16610","NA","NA","17162","16610","2","2486","legacy","large","1024","2","48000","-16","experiment","8_4_add_true.jpg","4","even","legacy","189126","NA","75368","NA","NA","1856","NA","1869","58757","189126","192735","19032","56772","1858","mousetracking operator preview effect","0","0","0","no","true","no","1680"
"neutral","undefined","1","undefined","undefined","white","no","legacy","legacy","legacy","0","relative","undefined","undefined","31","NA","0","0","0","0","0","0","0","47","47","0","15","0","no","03/08/19 09:41:41","A simple template for the mouse-tracking paradigm","yes","Experiment-TF.osexp","C:\Users\Kristen\Documents\opPreviewExperiment-master\procedure","no","mono","no","24","no","black","no","yes","1050","legacy","31","15","C:/Users/Kristen/Documents/opPreviewExperiment-master/procedure/subject-4.csv","legacy","Kafkaesque Koffka","3.2.6","mult","0","l","NA","NA","l","l","16610","NA","NA","17162","16610","2","1404","legacy","large","1024","2","48000","-16","experiment","9_7_mult_FI.jpg","4","even","legacy","192761","NA","75368","NA","NA","1856","NA","1869","58757","192761","195126","19032","56772","1858","mousetracking operator preview effect","0","0","0","no","false","no","1680"
"neutral","undefined","1","undefined","undefined","white","no","legacy","legacy","legacy","0","relative","undefined","undefined","32","NA","0","0","0","0","0","0","0","48","48","0","15","0","no","03/08/19 09:41:41","A simple template for the mouse-tracking paradigm","yes","Experiment-TF.osexp","C:\Users\Kristen\Documents\opPreviewExperiment-master\procedure","no","mono","no","24","no","black","no","yes","1050","legacy","32","15","C:/Users/Kristen/Documents/opPreviewExperiment-master/procedure/subject-4.csv","legacy","Kafkaesque Koffka","3.2.6","mult","0","a","NA","NA","l","l","16610","NA","NA","17162","16610","2","1440","legacy","small","1024","2","48000","-16","experiment","8_2_mult_true.jpg","4","even","legacy","195148","NA","75368","NA","NA","1856","NA","1869","58757","195148","197544","19032","56772","1858","mousetracking operator preview effect","0","0","0","no","true","no","1680"
"negative","undefined","1","undefined","undefined","white","no","legacy","legacy","legacy","0","relative","undefined","undefined","33","NA","0","0","0","0","0","0","0","49","49","0","15","0","no","03/08/19 09:41:41","A simple template for the mouse-tracking paradigm","yes","Experiment-TF.osexp","C:\Users\Kristen\Documents\opPreviewExperiment-master\procedure","no","mono","no","24","no","black","no","yes","1050","legacy","33","15","C:/Users/Kristen/Documents/opPreviewExperiment-master/procedure/subject-4.csv","legacy","Kafkaesque Koffka","3.2.6","add","0","l","NA","NA","l","l","16610","NA","NA","17162","16610","2","1885","legacy","large","1024","2","48000","-16","experiment","4_9_add_FI.jpg","4","even","legacy","197564","NA","75368","NA","NA","1856","NA","1869","58757","197564","200587","19032","56772","1858","mousetracking operator preview effect","0","0","0","no","false","no","1680"
"negative","undefined","1","undefined","undefined","white","no","legacy","legacy","legacy","0","relative","undefined","undefined","34","NA","0","0","0","0","0","0","0","50","50","0","15","0","no","03/08/19 09:41:41","A simple template for the mouse-tracking paradigm","yes","Experiment-TF.osexp","C:\Users\Kristen\Documents\opPreviewExperiment-master\procedure","no","mono","no","24","no","black","no","yes","1050","legacy","34","15","C:/Users/Kristen/Documents/opPreviewExperiment-master/procedure/subject-4.csv","legacy","Kafkaesque Koffka","3.2.6","mult","0","a","NA","NA","l","l","16610","NA","NA","17162","16610","2","1532","legacy","small","1024","2","48000","-16","experiment","8_2_mult_true.jpg","4","even","legacy","200613","NA","75368","NA","NA","1856","NA","1869","58757","200613","203276","19032","56772","1858","mousetracking operator preview effect","0","0","0","no","true","no","1680"
"neutral","undefined","1","undefined","undefined","white","no","legacy","legacy","legacy","0","relative","undefined","undefined","35","NA","0","0","0","0","0","0","0","51","51","0","15","0","no","03/08/19 09:41:41","A simple template for the mouse-tracking paradigm","yes","Experiment-TF.osexp","C:\Users\Kristen\Documents\opPreviewExperiment-master\procedure","no","mono","no","24","no","black","no","yes","1050","legacy","35","15","C:/Users/Kristen/Documents/opPreviewExperiment-master/procedure/subject-4.csv","legacy","Kafkaesque Koffka","3.2.6","mult","0","l","NA","NA","l","l","16610","NA","NA","17162","16610","2","1203","legacy","small","1024","2","48000","-16","experiment","5_3_mult_FI.jpg","4","even","legacy","203296","NA","75368","NA","NA","1856","NA","1869","58757","203296","205460","19032","56772","1858","mousetracking operator preview effect","0","0","0","no","false","no","1680"
"negative","undefined","1","undefined","undefined","white","no","legacy","legacy","legacy","0","relative","undefined","undefined","36","NA","0","0","0","0","0","0","0","52","52","0","15","0","no","03/08/19 09:41:41","A simple template for the mouse-tracking paradigm","yes","Experiment-TF.osexp","C:\Users\Kristen\Documents\opPreviewExperiment-master\procedure","no","mono","no","24","no","black","no","yes","1050","legacy","36","15","C:/Users/Kristen/Documents/opPreviewExperiment-master/procedure/subject-4.csv","legacy","Kafkaesque Koffka","3.2.6","mult","0","l","NA","NA","l","l","16610","NA","NA","17162","16610","2","1431","legacy","large","1024","2","48000","-16","experiment","4_9_mult_FNI.jpg","4","even","legacy","205488","NA","75368","NA","NA","1856","NA","1869","58757","205488","208025","19032","56772","1858","mousetracking operator preview effect","0","0","0","no","false","no","1680"
"negative","undefined","1","undefined","undefined","white","no","legacy","legacy","legacy","0","relative","undefined","undefined","37","NA","0","0","0","0","0","0","0","53","53","0","15","0","no","03/08/19 09:41:41","A simple template for the mouse-tracking paradigm","yes","Experiment-TF.osexp","C:\Users\Kristen\Documents\opPreviewExperiment-master\procedure","no","mono","no","24","no","black","no","yes","1050","legacy","37","15","C:/Users/Kristen/Documents/opPreviewExperiment-master/procedure/subject-4.csv","legacy","Kafkaesque Koffka","3.2.6","add","0","a","NA","NA","l","l","16610","NA","NA","17162","16610","2","3212","legacy","small","1024","2","48000","-16","experiment","2_7_add_true.jpg","4","even","legacy","208046","NA","75368","NA","NA","1856","NA","1869","58757","208046","212378","19032","56772","1858","mousetracking operator preview effect","0","0","0","no","true","no","1680"
"neutral","undefined","1","undefined","undefined","white","no","legacy","legacy","legacy","0","relative","undefined","undefined","38","NA","0","0","0","0","0","0","0","54","54","0","15","0","no","03/08/19 09:41:41","A simple template for the mouse-tracking paradigm","yes","Experiment-TF.osexp","C:\Users\Kristen\Documents\opPreviewExperiment-master\procedure","no","mono","no","24","no","black","no","yes","1050","legacy","38","15","C:/Users/Kristen/Documents/opPreviewExperiment-master/procedure/subject-4.csv","legacy","Kafkaesque Koffka","3.2.6","add","0","l","NA","NA","l","l","16610","NA","NA","17162","16610","2","2463","legacy","large","1024","2","48000","-16","experiment","8_4_add_FI.jpg","4","even","legacy","212399","NA","75368","NA","NA","1856","NA","1869","58757","212399","215818","19032","56772","1858","mousetracking operator preview effect","0","0","0","no","false","no","1680"
"negative","undefined","1","undefined","undefined","white","no","legacy","legacy","legacy","0","relative","undefined","undefined","39","NA","0","0","0","0","0","0","0","55","55","0","15","0","no","03/08/19 09:41:41","A simple template for the mouse-tracking paradigm","yes","Experiment-TF.osexp","C:\Users\Kristen\Documents\opPreviewExperiment-master\procedure","no","mono","no","24","no","black","no","yes","1050","legacy","39","15","C:/Users/Kristen/Documents/opPreviewExperiment-master/procedure/subject-4.csv","legacy","Kafkaesque Koffka","3.2.6","mult","0","l","NA","NA","l","l","16610","NA","NA","17162","16610","2","2233","legacy","small","1024","2","48000","-16","experiment","3_6_mult_FNI.jpg","4","even","legacy","215843","NA","75368","NA","NA","1856","NA","1869","58757","215843","219197","19032","56772","1858","mousetracking operator preview effect","0","0","0","no","false","no","1680"
"negative","undefined","1","undefined","undefined","white","no","legacy","legacy","legacy","0","relative","undefined","undefined","40","NA","0","0","0","0","0","0","0","56","56","0","15","0","no","03/08/19 09:41:41","A simple template for the mouse-tracking paradigm","yes","Experiment-TF.osexp","C:\Users\Kristen\Documents\opPreviewExperiment-master\procedure","no","mono","no","24","no","black","no","yes","1050","legacy","40","15","C:/Users/Kristen/Documents/opPreviewExperiment-master/procedure/subject-4.csv","legacy","Kafkaesque Koffka","3.2.6","mult","0","a","NA","NA","l","l","16610","NA","NA","17162","16610","2","1320","legacy","small","1024","2","48000","-16","experiment","8_2_mult_true.jpg","4","even","legacy","219223","NA","75368","NA","NA","1856","NA","1869","58757","219223","221670","19032","56772","1858","mousetracking operator preview effect","0","0","0","no","true","no","1680"
"negative","undefined","1","undefined","undefined","white","no","legacy","legacy","legacy","0","relative","undefined","undefined","41","NA","0","0","0","0","0","0","0","57","57","0","15","0","no","03/08/19 09:41:41","A simple template for the mouse-tracking paradigm","yes","Experiment-TF.osexp","C:\Users\Kristen\Documents\opPreviewExperiment-master\procedure","no","mono","no","24","no","black","no","yes","1050","legacy","41","15","C:/Users/Kristen/Documents/opPreviewExperiment-master/procedure/subject-4.csv","legacy","Kafkaesque Koffka","3.2.6","add","0","a","NA","NA","l","l","16610","NA","NA","17162","16610","2","2785","legacy","large","1024","2","48000","-16","experiment","6_8_add_true.jpg","4","even","legacy","221684","NA","75368","NA","NA","1856","NA","1869","58757","221684","225593","19032","56772","1858","mousetracking operator preview effect","0","0","0","no","true","no","1680"
"neutral","undefined","1","undefined","undefined","white","no","legacy","legacy","legacy","0","relative","undefined","undefined","42","NA","0","0","0","0","0","0","0","58","58","0","15","0","no","03/08/19 09:41:41","A simple template for the mouse-tracking paradigm","yes","Experiment-TF.osexp","C:\Users\Kristen\Documents\opPreviewExperiment-master\procedure","no","mono","no","24","no","black","no","yes","1050","legacy","42","15","C:/Users/Kristen/Documents/opPreviewExperiment-master/procedure/subject-4.csv","legacy","Kafkaesque Koffka","3.2.6","mult","0","l","NA","NA","l","l","16610","NA","NA","17162","16610","2","1594","legacy","large","1024","2","48000","-16","experiment","4_9_mult_FI.jpg","4","even","legacy","225620","NA","75368","NA","NA","1856","NA","1869","58757","225620","228180","19032","56772","1858","mousetracking operator preview effect","0","0","0","no","false","no","1680"
"neutral","undefined","1","undefined","undefined","white","no","legacy","legacy","legacy","0","relative","undefined","undefined","43","NA","0","0","0","0","0","0","0","59","59","0","15","0","no","03/08/19 09:41:41","A simple template for the mouse-tracking paradigm","yes","Experiment-TF.osexp","C:\Users\Kristen\Documents\opPreviewExperiment-master\procedure","no","mono","no","24","no","black","no","yes","1050","legacy","43","15","C:/Users/Kristen/Documents/opPreviewExperiment-master/procedure/subject-4.csv","legacy","Kafkaesque Koffka","3.2.6","mult","0","a","NA","NA","l","l","16610","NA","NA","17162","16610","2","1482","legacy","large","1024","2","48000","-16","experiment","9_7_mult_true.jpg","4","even","legacy","228202","NA","75368","NA","NA","1856","NA","1869","58757","228202","230637","19032","56772","1858","mousetracking operator preview effect","0","0","0","no","true","no","1680"
"negative","undefined","1","undefined","undefined","white","no","legacy","legacy","legacy","0","relative","undefined","undefined","44","NA","0","0","0","0","0","0","0","60","60","0","15","0","no","03/08/19 09:41:41","A simple template for the mouse-tracking paradigm","yes","Experiment-TF.osexp","C:\Users\Kristen\Documents\opPreviewExperiment-master\procedure","no","mono","no","24","no","black","no","yes","1050","legacy","44","15","C:/Users/Kristen/Documents/opPreviewExperiment-master/procedure/subject-4.csv","legacy","Kafkaesque Koffka","3.2.6","mult","0","a","NA","NA","l","l","16610","NA","NA","17162","16610","2","1407","legacy","small","1024","2","48000","-16","experiment","2_7_mult_true.jpg","4","even","legacy","230658","NA","75368","NA","NA","1856","NA","1869","58757","230658","233167","19032","56772","1858","mousetracking operator preview effect","0","0","0","no","true","no","1680"
"negative","undefined","1","undefined","undefined","white","no","legacy","legacy","legacy","0","relative","undefined","undefined","45","NA","0","0","0","0","0","0","0","61","61","0","15","0","no","03/08/19 09:41:41","A simple template for the mouse-tracking paradigm","yes","Experiment-TF.osexp","C:\Users\Kristen\Documents\opPreviewExperiment-master\procedure","no","mono","no","24","no","black","no","yes","1050","legacy","45","15","C:/Users/Kristen/Documents/opPreviewExperiment-master/procedure/subject-4.csv","legacy","Kafkaesque Koffka","3.2.6","add","0","a","NA","NA","l","l","16610","NA","NA","17162","16610","2","1313","legacy","small","1024","2","48000","-16","experiment","3_6_add_true.jpg","4","even","legacy","233187","NA","75368","NA","NA","1856","NA","1869","58757","233187","235626","19032","56772","1858","mousetracking operator preview effect","0","0","0","no","true","no","1680"
"neutral","undefined","1","undefined","undefined","white","no","legacy","legacy","legacy","0","relative","undefined","undefined","46","NA","0","0","0","0","0","0","0","62","62","0","15","0","no","03/08/19 09:41:41","A simple template for the mouse-tracking paradigm","yes","Experiment-TF.osexp","C:\Users\Kristen\Documents\opPreviewExperiment-master\procedure","no","mono","no","24","no","black","no","yes","1050","legacy","46","15","C:/Users/Kristen/Documents/opPreviewExperiment-master/procedure/subject-4.csv","legacy","Kafkaesque Koffka","3.2.6","mult","0","a","NA","NA","l","l","16610","NA","NA","17162","16610","2","1866","legacy","small","1024","2","48000","-16","experiment","8_2_mult_true.jpg","4","even","legacy","235651","NA","75368","NA","NA","1856","NA","1869","58757","235651","238482","19032","56772","1858","mousetracking operator preview effect","0","0","0","no","true","no","1680"
"negative","undefined","1","undefined","undefined","white","no","legacy","legacy","legacy","0","relative","undefined","undefined","47","NA","0","0","0","0","0","0","0","63","63","0","15","0","no","03/08/19 09:41:41","A simple template for the mouse-tracking paradigm","yes","Experiment-TF.osexp","C:\Users\Kristen\Documents\opPreviewExperiment-master\procedure","no","mono","no","24","no","black","no","yes","1050","legacy","47","15","C:/Users/Kristen/Documents/opPreviewExperiment-master/procedure/subject-4.csv","legacy","Kafkaesque Koffka","3.2.6","add","0","a","NA","NA","l","l","16610","NA","NA","17162","16610","2","1984","legacy","large","1024","2","48000","-16","experiment","4_9_add_true.jpg","4","even","legacy","238502","NA","75368","NA","NA","1856","NA","1869","58757","238502","241614","19032","56772","1858","mousetracking operator preview effect","0","0","0","no","true","no","1680"
"neutral","undefined","1","undefined","undefined","white","no","legacy","legacy","legacy","0","relative","undefined","undefined","48","NA","0","0","0","0","0","0","0","64","64","0","15","0","no","03/08/19 09:41:41","A simple template for the mouse-tracking paradigm","yes","Experiment-TF.osexp","C:\Users\Kristen\Documents\opPreviewExperiment-master\procedure","no","mono","no","24","no","black","no","yes","1050","legacy","48","15","C:/Users/Kristen/Documents/opPreviewExperiment-master/procedure/subject-4.csv","legacy","Kafkaesque Koffka","3.2.6","add","0","a","NA","NA","l","l","16610","NA","NA","17162","16610","2","1626","legacy","small","1024","2","48000","-16","experiment","5_3_add_true.jpg","4","even","legacy","241640","NA","75368","NA","NA","1856","NA","1869","58757","241640","244219","19032","56772","1858","mousetracking operator preview effect","0","0","0","no","true","no","1680"
"negative","undefined","1","undefined","undefined","white","no","legacy","legacy","legacy","0","relative","undefined","undefined","49","NA","0","0","0","0","0","0","0","65","65","0","15","0","no","03/08/19 09:41:41","A simple template for the mouse-tracking paradigm","yes","Experiment-TF.osexp","C:\Users\Kristen\Documents\opPreviewExperiment-master\procedure","no","mono","no","24","no","black","no","yes","1050","legacy","49","15","C:/Users/Kristen/Documents/opPreviewExperiment-master/procedure/subject-4.csv","legacy","Kafkaesque Koffka","3.2.6","add","0","l","NA","NA","l","l","16610","NA","NA","17162","16610","2","2206","legacy","large","1024","2","48000","-16","experiment","4_9_add_FNI.jpg","4","even","legacy","244240","NA","75368","NA","NA","1856","NA","1869","58757","244240","247579","19032","56772","1858","mousetracking operator preview effect","0","0","0","no","false","no","1680"
"negative","undefined","1","undefined","undefined","white","no","legacy","legacy","legacy","0","relative","undefined","undefined","50","NA","0","0","0","0","0","0","0","66","66","0","15","0","no","03/08/19 09:41:41","A simple template for the mouse-tracking paradigm","yes","Experiment-TF.osexp","C:\Users\Kristen\Documents\opPreviewExperiment-master\procedure","no","mono","no","24","no","black","no","yes","1050","legacy","50","15","C:/Users/Kristen/Documents/opPreviewExperiment-master/procedure/subject-4.csv","legacy","Kafkaesque Koffka","3.2.6","add","0","a","NA","NA","l","l","16610","NA","NA","17162","16610","2","2406","legacy","large","1024","2","48000","-16","experiment","9_7_add_true.jpg","4","even","legacy","247600","NA","75368","NA","NA","1856","NA","1869","58757","247600","251141","19032","56772","1858","mousetracking operator preview effect","0","0","0","no","true","no","1680"
"neutral","undefined","1","undefined","undefined","white","no","legacy","legacy","legacy","0","relative","undefined","undefined","51","NA","0","0","0","0","0","0","0","67","67","0","15","0","no","03/08/19 09:41:41","A simple template for the mouse-tracking paradigm","yes","Experiment-TF.osexp","C:\Users\Kristen\Documents\opPreviewExperiment-master\procedure","no","mono","no","24","no","black","no","yes","1050","legacy","51","15","C:/Users/Kristen/Documents/opPreviewExperiment-master/procedure/subject-4.csv","legacy","Kafkaesque Koffka","3.2.6","mult","0","l","NA","NA","l","l","16610","NA","NA","17162","16610","2","1920","legacy","small","1024","2","48000","-16","experiment","3_6_mult_FNI.jpg","4","even","legacy","251161","NA","75368","NA","NA","1856","NA","1869","58757","251161","254037","19032","56772","1858","mousetracking operator preview effect","0","0","0","no","false","no","1680"
"negative","undefined","0","undefined","undefined","white","no","legacy","legacy","legacy","0","relative","undefined","undefined","52","NA","0","0","0","0","0","0","0","68","68","0","15","0","no","03/08/19 09:41:41","A simple template for the mouse-tracking paradigm","yes","Experiment-TF.osexp","C:\Users\Kristen\Documents\opPreviewExperiment-master\procedure","no","mono","no","24","no","black","no","yes","1050","legacy","52","15","C:/Users/Kristen/Documents/opPreviewExperiment-master/procedure/subject-4.csv","legacy","Kafkaesque Koffka","3.2.6","mult","0","a","NA","NA","l","l","16610","NA","NA","17162","16610","2","1250","legacy","small","1024","2","48000","-16","experiment","2_7_mult_FNI.jpg","4","even","legacy","254057","NA","75368","NA","NA","1856","NA","1869","58757","254057","257454","19032","56772","1858","mousetracking operator preview effect","0","0","0","no","false","no","1680"
"negative","undefined","1","undefined","undefined","white","no","legacy","legacy","legacy","0","relative","undefined","undefined","53","NA","0","0","0","0","0","0","0","69","69","0","15","0","no","03/08/19 09:41:41","A simple template for the mouse-tracking paradigm","yes","Experiment-TF.osexp","C:\Users\Kristen\Documents\opPreviewExperiment-master\procedure","no","mono","no","24","no","black","no","yes","1050","legacy","53","15","C:/Users/Kristen/Documents/opPreviewExperiment-master/procedure/subject-4.csv","legacy","Kafkaesque Koffka","3.2.6","add","0","l","NA","NA","l","l","16610","NA","NA","17162","16610","2","1556","legacy","large","1024","2","48000","-16","experiment","6_8_add_FI.jpg","4","even","legacy","257475","NA","75368","NA","NA","1856","NA","1869","58757","257475","260145","19032","56772","1858","mousetracking operator preview effect","0","0","0","no","false","no","1680"
"negative","undefined","1","undefined","undefined","white","no","legacy","legacy","legacy","0","relative","undefined","undefined","54","NA","0","0","0","0","0","0","0","70","70","0","15","0","no","03/08/19 09:41:41","A simple template for the mouse-tracking paradigm","yes","Experiment-TF.osexp","C:\Users\Kristen\Documents\opPreviewExperiment-master\procedure","no","mono","no","24","no","black","no","yes","1050","legacy","54","15","C:/Users/Kristen/Documents/opPreviewExperiment-master/procedure/subject-4.csv","legacy","Kafkaesque Koffka","3.2.6","add","0","a","NA","NA","l","l","16610","NA","NA","17162","16610","2","802","legacy","small","1024","2","48000","-16","experiment","8_2_add_true.jpg","4","even","legacy","260167","NA","75368","NA","NA","1856","NA","1869","58757","260167","262101","19032","56772","1858","mousetracking operator preview effect","0","0","0","no","true","no","1680"
"neutral","undefined","0","undefined","undefined","white","no","legacy","legacy","legacy","0","relative","undefined","undefined","55","NA","0","0","0","0","0","0","0","71","71","0","15","0","no","03/08/19 09:41:41","A simple template for the mouse-tracking paradigm","yes","Experiment-TF.osexp","C:\Users\Kristen\Documents\opPreviewExperiment-master\procedure","no","mono","no","24","no","black","no","yes","1050","legacy","55","15","C:/Users/Kristen/Documents/opPreviewExperiment-master/procedure/subject-4.csv","legacy","Kafkaesque Koffka","3.2.6","mult","0","a","NA","NA","l","l","16610","NA","NA","17162","16610","2","2468","legacy","large","1024","2","48000","-16","experiment","6_8_mult_FNI.jpg","4","even","legacy","262122","NA","75368","NA","NA","1856","NA","1869","58757","262122","266573","19032","56772","1858","mousetracking operator preview effect","0","0","0","no","false","no","1680"
"negative","undefined","1","undefined","undefined","white","no","legacy","legacy","legacy","0","relative","undefined","undefined","56","NA","0","0","0","0","0","0","0","72","72","0","15","0","no","03/08/19 09:41:41","A simple template for the mouse-tracking paradigm","yes","Experiment-TF.osexp","C:\Users\Kristen\Documents\opPreviewExperiment-master\procedure","no","mono","no","24","no","black","no","yes","1050","legacy","56","15","C:/Users/Kristen/Documents/opPreviewExperiment-master/procedure/subject-4.csv","legacy","Kafkaesque Koffka","3.2.6","mult","0","l","NA","NA","l","l","16610","NA","NA","17162","16610","2","2412","legacy","large","1024","2","48000","-16","experiment","6_8_mult_FNI.jpg","4","even","legacy","266606","NA","75368","NA","NA","1856","NA","1869","58757","266607","270145","19032","56772","1858","mousetracking operator preview effect","0","0","0","no","false","no","1680"
"neutral","undefined","1","undefined","undefined","white","no","legacy","legacy","legacy","0","relative","undefined","undefined","57","NA","0","0","0","0","0","0","0","73","73","0","15","0","no","03/08/19 09:41:41","A simple template for the mouse-tracking paradigm","yes","Experiment-TF.osexp","C:\Users\Kristen\Documents\opPreviewExperiment-master\procedure","no","mono","no","24","no","black","no","yes","1050","legacy","57","15","C:/Users/Kristen/Documents/opPreviewExperiment-master/procedure/subject-4.csv","legacy","Kafkaesque Koffka","3.2.6","add","0","l","NA","NA","l","l","16610","NA","NA","17162","16610","2","2569","legacy","small","1024","2","48000","-16","experiment","8_2_add_FI.jpg","4","even","legacy","270165","NA","75368","NA","NA","1856","NA","1869","58757","270165","273700","19032","56772","1858","mousetracking operator preview effect","0","0","0","no","false","no","1680"
"neutral","undefined","1","undefined","undefined","white","no","legacy","legacy","legacy","0","relative","undefined","undefined","58","NA","0","0","0","0","0","0","0","74","74","0","15","0","no","03/08/19 09:41:41","A simple template for the mouse-tracking paradigm","yes","Experiment-TF.osexp","C:\Users\Kristen\Documents\opPreviewExperiment-master\procedure","no","mono","no","24","no","black","no","yes","1050","legacy","58","15","C:/Users/Kristen/Documents/opPreviewExperiment-master/procedure/subject-4.csv","legacy","Kafkaesque Koffka","3.2.6","add","0","l","NA","NA","l","l","16610","NA","NA","17162","16610","2","1870","legacy","large","1024","2","48000","-16","experiment","4_9_add_FI.jpg","4","even","legacy","273721","NA","75368","NA","NA","1856","NA","1869","58757","273721","276554","19032","56772","1858","mousetracking operator preview effect","0","0","0","no","false","no","1680"
"negative","undefined","1","undefined","undefined","white","no","legacy","legacy","legacy","0","relative","undefined","undefined","59","NA","0","0","0","0","0","0","0","75","75","0","15","0","no","03/08/19 09:41:41","A simple template for the mouse-tracking paradigm","yes","Experiment-TF.osexp","C:\Users\Kristen\Documents\opPreviewExperiment-master\procedure","no","mono","no","24","no","black","no","yes","1050","legacy","59","15","C:/Users/Kristen/Documents/opPreviewExperiment-master/procedure/subject-4.csv","legacy","Kafkaesque Koffka","3.2.6","mult","0","a","NA","NA","l","l","16610","NA","NA","17162","16610","2","957","legacy","small","1024","2","48000","-16","experiment","2_7_mult_true.jpg","4","even","legacy","276578","NA","75368","NA","NA","1856","NA","1869","58757","276578","278653","19032","56772","1858","mousetracking operator preview effect","0","0","0","no","true","no","1680"
"negative","undefined","1","undefined","undefined","white","no","legacy","legacy","legacy","0","relative","undefined","undefined","60","NA","0","0","0","0","0","0","0","76","76","0","15","0","no","03/08/19 09:41:41","A simple template for the mouse-tracking paradigm","yes","Experiment-TF.osexp","C:\Users\Kristen\Documents\opPreviewExperiment-master\procedure","no","mono","no","24","no","black","no","yes","1050","legacy","60","15","C:/Users/Kristen/Documents/opPreviewExperiment-master/procedure/subject-4.csv","legacy","Kafkaesque Koffka","3.2.6","mult","0","a","NA","NA","l","l","16610","NA","NA","17162","16610","2","2374","legacy","small","1024","2","48000","-16","experiment","3_6_mult_true.jpg","4","even","legacy","278673","NA","75368","NA","NA","1856","NA","1869","58757","278673","282179","19032","56772","1858","mousetracking operator preview effect","0","0","0","no","true","no","1680"
"neutral","undefined","0","undefined","undefined","white","no","legacy","legacy","legacy","0","relative","undefined","undefined","61","NA","0","0","0","0","0","0","0","77","77","0","15","0","no","03/08/19 09:41:41","A simple template for the mouse-tracking paradigm","yes","Experiment-TF.osexp","C:\Users\Kristen\Documents\opPreviewExperiment-master\procedure","no","mono","no","24","no","black","no","yes","1050","legacy","61","15","C:/Users/Kristen/Documents/opPreviewExperiment-master/procedure/subject-4.csv","legacy","Kafkaesque Koffka","3.2.6","mult","0","a","NA","NA","l","l","16610","NA","NA","17162","16610","2","3469","legacy","large","1024","2","48000","-16","experiment","4_9_mult_FNI.jpg","4","even","legacy","282200","NA","75368","NA","NA","1856","NA","1869","58757","282200","287652","19032","56772","1858","mousetracking operator preview effect","0","0","0","no","false","no","1680"
"neutral","undefined","1","undefined","undefined","white","no","legacy","legacy","legacy","0","relative","undefined","undefined","62","NA","0","0","0","0","0","0","0","78","78","0","15","0","no","03/08/19 09:41:41","A simple template for the mouse-tracking paradigm","yes","Experiment-TF.osexp","C:\Users\Kristen\Documents\opPreviewExperiment-master\procedure","no","mono","no","24","no","black","no","yes","1050","legacy","62","15","C:/Users/Kristen/Documents/opPreviewExperiment-master/procedure/subject-4.csv","legacy","Kafkaesque Koffka","3.2.6","mult","0","l","NA","NA","l","l","16610","NA","NA","17162","16610","2","2241","legacy","large","1024","2","48000","-16","experiment","8_4_mult_FNI.jpg","4","even","legacy","287683","NA","75368","NA","NA","1856","NA","1869","58757","287683","290886","19032","56772","1858","mousetracking operator preview effect","0","0","0","no","false","no","1680"
"negative","undefined","1","undefined","undefined","white","no","legacy","legacy","legacy","0","relative","undefined","undefined","63","NA","0","0","0","0","0","0","0","79","79","0","15","0","no","03/08/19 09:41:41","A simple template for the mouse-tracking paradigm","yes","Experiment-TF.osexp","C:\Users\Kristen\Documents\opPreviewExperiment-master\procedure","no","mono","no","24","no","black","no","yes","1050","legacy","63","15","C:/Users/Kristen/Documents/opPreviewExperiment-master/procedure/subject-4.csv","legacy","Kafkaesque Koffka","3.2.6","add","0","a","NA","NA","l","l","16610","NA","NA","17162","16610","2","1983","legacy","large","1024","2","48000","-16","experiment","4_9_add_true.jpg","4","even","legacy","290900","NA","75368","NA","NA","1856","NA","1869","58757","290900","294007","19032","56772","1858","mousetracking operator preview effect","0","0","0","no","true","no","1680"
"negative","undefined","1","undefined","undefined","white","no","legacy","legacy","legacy","0","relative","undefined","undefined","64","NA","0","0","0","0","0","0","0","80","80","0","15","0","no","03/08/19 09:41:41","A simple template for the mouse-tracking paradigm","yes","Experiment-TF.osexp","C:\Users\Kristen\Documents\opPreviewExperiment-master\procedure","no","mono","no","24","no","black","no","yes","1050","legacy","64","15","C:/Users/Kristen/Documents/opPreviewExperiment-master/procedure/subject-4.csv","legacy","Kafkaesque Koffka","3.2.6","add","0","l","NA","NA","l","l","16610","NA","NA","17162","16610","2","1349","legacy","small","1024","2","48000","-16","experiment","2_7_add_FI.jpg","4","even","legacy","294027","NA","75368","NA","NA","1856","NA","1869","58757","294027","296503","19032","56772","1858","mousetracking operator preview effect","0","0","0","no","false","no","1680"
"negative","undefined","0","undefined","undefined","white","no","legacy","legacy","legacy","0","relative","undefined","undefined","65","NA","0","0","0","0","0","0","0","81","81","0","15","0","no","03/08/19 09:41:41","A simple template for the mouse-tracking paradigm","yes","Experiment-TF.osexp","C:\Users\Kristen\Documents\opPreviewExperiment-master\procedure","no","mono","no","24","no","black","no","yes","1050","legacy","65","15","C:/Users/Kristen/Documents/opPreviewExperiment-master/procedure/subject-4.csv","legacy","Kafkaesque Koffka","3.2.6","mult","0","a","NA","NA","l","l","16610","NA","NA","17162","16610","2","2165","legacy","large","1024","2","48000","-16","experiment","9_7_mult_FNI.jpg","4","even","legacy","296523","NA","75368","NA","NA","1856","NA","1869","58757","296523","300819","19032","56772","1858","mousetracking operator preview effect","0","0","0","no","false","no","1680"
"neutral","undefined","1","undefined","undefined","white","no","legacy","legacy","legacy","0","relative","undefined","undefined","66","NA","0","0","0","0","0","0","0","82","82","0","15","0","no","03/08/19 09:41:41","A simple template for the mouse-tracking paradigm","yes","Experiment-TF.osexp","C:\Users\Kristen\Documents\opPreviewExperiment-master\procedure","no","mono","no","24","no","black","no","yes","1050","legacy","66","15","C:/Users/Kristen/Documents/opPreviewExperiment-master/procedure/subject-4.csv","legacy","Kafkaesque Koffka","3.2.6","mult","0","l","NA","NA","l","l","16610","NA","NA","17162","16610","2","1536","legacy","small","1024","2","48000","-16","experiment","5_3_mult_FNI.jpg","4","even","legacy","300834","NA","75368","NA","NA","1856","NA","1869","58757","300834","303339","19032","56772","1858","mousetracking operator preview effect","0","0","0","no","false","no","1680"
"neutral","undefined","1","undefined","undefined","white","no","legacy","legacy","legacy","0","relative","undefined","undefined","67","NA","0","0","0","0","0","0","0","83","83","0","15","0","no","03/08/19 09:41:41","A simple template for the mouse-tracking paradigm","yes","Experiment-TF.osexp","C:\Users\Kristen\Documents\opPreviewExperiment-master\procedure","no","mono","no","24","no","black","no","yes","1050","legacy","67","15","C:/Users/Kristen/Documents/opPreviewExperiment-master/procedure/subject-4.csv","legacy","Kafkaesque Koffka","3.2.6","mult","0","l","NA","NA","l","l","16610","NA","NA","17162","16610","2","2014","legacy","small","1024","2","48000","-16","experiment","2_7_mult_FNI.jpg","4","even","legacy","303366","NA","75368","NA","NA","1856","NA","1869","58757","303366","306333","19032","56772","1858","mousetracking operator preview effect","0","0","0","no","false","no","1680"
"neutral","undefined","1","undefined","undefined","white","no","legacy","legacy","legacy","0","relative","undefined","undefined","68","NA","0","0","0","0","0","0","0","84","84","0","15","0","no","03/08/19 09:41:41","A simple template for the mouse-tracking paradigm","yes","Experiment-TF.osexp","C:\Users\Kristen\Documents\opPreviewExperiment-master\procedure","no","mono","no","24","no","black","no","yes","1050","legacy","68","15","C:/Users/Kristen/Documents/opPreviewExperiment-master/procedure/subject-4.csv","legacy","Kafkaesque Koffka","3.2.6","mult","0","a","NA","NA","l","l","16610","NA","NA","17162","16610","2","2505","legacy","large","1024","2","48000","-16","experiment","8_4_mult_true.jpg","4","even","legacy","306355","NA","75368","NA","NA","1856","NA","1869","58757","306355","309824","19032","56772","1858","mousetracking operator preview effect","0","0","0","no","true","no","1680"
"neutral","undefined","1","undefined","undefined","white","no","legacy","legacy","legacy","0","relative","undefined","undefined","69","NA","0","0","0","0","0","0","0","85","85","0","15","0","no","03/08/19 09:41:41","A simple template for the mouse-tracking paradigm","yes","Experiment-TF.osexp","C:\Users\Kristen\Documents\opPreviewExperiment-master\procedure","no","mono","no","24","no","black","no","yes","1050","legacy","69","15","C:/Users/Kristen/Documents/opPreviewExperiment-master/procedure/subject-4.csv","legacy","Kafkaesque Koffka","3.2.6","add","0","a","NA","NA","l","l","16610","NA","NA","17162","16610","2","6561","legacy","large","1024","2","48000","-16","experiment","9_7_add_true.jpg","4","even","legacy","309845","NA","75368","NA","NA","1856","NA","1869","58757","309845","317374","19032","56772","1858","mousetracking operator preview effect","0","0","0","no","true","no","1680"
"neutral","undefined","1","undefined","undefined","white","no","legacy","legacy","legacy","0","relative","undefined","undefined","70","NA","0","0","0","0","0","0","0","86","86","0","15","0","no","03/08/19 09:41:41","A simple template for the mouse-tracking paradigm","yes","Experiment-TF.osexp","C:\Users\Kristen\Documents\opPreviewExperiment-master\procedure","no","mono","no","24","no","black","no","yes","1050","legacy","70","15","C:/Users/Kristen/Documents/opPreviewExperiment-master/procedure/subject-4.csv","legacy","Kafkaesque Koffka","3.2.6","mult","0","a","NA","NA","l","l","16610","NA","NA","17162","16610","2","1110","legacy","small","1024","2","48000","-16","experiment","5_3_mult_true.jpg","4","even","legacy","317399","NA","75368","NA","NA","1856","NA","1869","58757","317399","319472","19032","56772","1858","mousetracking operator preview effect","0","0","0","no","true","no","1680"
"negative","undefined","1","undefined","undefined","white","no","legacy","legacy","legacy","0","relative","undefined","undefined","71","NA","0","0","0","0","0","0","0","87","87","0","15","0","no","03/08/19 09:41:41","A simple template for the mouse-tracking paradigm","yes","Experiment-TF.osexp","C:\Users\Kristen\Documents\opPreviewExperiment-master\procedure","no","mono","no","24","no","black","no","yes","1050","legacy","71","15","C:/Users/Kristen/Documents/opPreviewExperiment-master/procedure/subject-4.csv","legacy","Kafkaesque Koffka","3.2.6","mult","0","a","NA","NA","l","l","16610","NA","NA","17162","16610","2","2021","legacy","large","1024","2","48000","-16","experiment","6_8_mult_true.jpg","4","even","legacy","319493","NA","75368","NA","NA","1856","NA","1869","58757","319493","322650","19032","56772","1858","mousetracking operator preview effect","0","0","0","no","true","no","1680"
"neutral","undefined","1","undefined","undefined","white","no","legacy","legacy","legacy","0","relative","undefined","undefined","72","NA","0","0","0","0","0","0","0","88","88","0","15","0","no","03/08/19 09:41:41","A simple template for the mouse-tracking paradigm","yes","Experiment-TF.osexp","C:\Users\Kristen\Documents\opPreviewExperiment-master\procedure","no","mono","no","24","no","black","no","yes","1050","legacy","72","15","C:/Users/Kristen/Documents/opPreviewExperiment-master/procedure/subject-4.csv","legacy","Kafkaesque Koffka","3.2.6","mult","0","a","NA","NA","l","l","16610","NA","NA","17162","16610","2","969","legacy","small","1024","2","48000","-16","experiment","2_7_mult_true.jpg","4","even","legacy","322663","NA","75368","NA","NA","1856","NA","1869","58757","322663","324584","19032","56772","1858","mousetracking operator preview effect","0","0","0","no","true","no","1680"
"neutral","undefined","1","undefined","undefined","white","no","legacy","legacy","legacy","0","relative","undefined","undefined","73","NA","0","0","0","0","0","0","0","89","89","0","15","0","no","03/08/19 09:41:41","A simple template for the mouse-tracking paradigm","yes","Experiment-TF.osexp","C:\Users\Kristen\Documents\opPreviewExperiment-master\procedure","no","mono","no","24","no","black","no","yes","1050","legacy","73","15","C:/Users/Kristen/Documents/opPreviewExperiment-master/procedure/subject-4.csv","legacy","Kafkaesque Koffka","3.2.6","mult","0","l","NA","NA","l","l","16610","NA","NA","17162","16610","2","1264","legacy","small","1024","2","48000","-16","experiment","2_7_mult_FI.jpg","4","even","legacy","324605","NA","75368","NA","NA","1856","NA","1869","58757","324605","326835","19032","56772","1858","mousetracking operator preview effect","0","0","0","no","false","no","1680"
"neutral","undefined","1","undefined","undefined","white","no","legacy","legacy","legacy","0","relative","undefined","undefined","74","NA","0","0","0","0","0","0","0","90","90","0","15","0","no","03/08/19 09:41:41","A simple template for the mouse-tracking paradigm","yes","Experiment-TF.osexp","C:\Users\Kristen\Documents\opPreviewExperiment-master\procedure","no","mono","no","24","no","black","no","yes","1050","legacy","74","15","C:/Users/Kristen/Documents/opPreviewExperiment-master/procedure/subject-4.csv","legacy","Kafkaesque Koffka","3.2.6","add","0","a","NA","NA","l","l","16610","NA","NA","17162","16610","2","2829","legacy","large","1024","2","48000","-16","experiment","6_8_add_true.jpg","4","even","legacy","326861","NA","75368","NA","NA","1856","NA","1869","58757","326861","330657","19032","56772","1858","mousetracking operator preview effect","0","0","0","no","true","no","1680"
"negative","undefined","1","undefined","undefined","white","no","legacy","legacy","legacy","0","relative","undefined","undefined","75","NA","0","0","0","0","0","0","0","91","91","0","15","0","no","03/08/19 09:41:41","A simple template for the mouse-tracking paradigm","yes","Experiment-TF.osexp","C:\Users\Kristen\Documents\opPreviewExperiment-master\procedure","no","mono","no","24","no","black","no","yes","1050","legacy","75","15","C:/Users/Kristen/Documents/opPreviewExperiment-master/procedure/subject-4.csv","legacy","Kafkaesque Koffka","3.2.6","add","0","a","NA","NA","l","l","16610","NA","NA","17162","16610","2","1776","legacy","small","1024","2","48000","-16","experiment","3_6_add_true.jpg","4","even","legacy","330680","NA","75368","NA","NA","1856","NA","1869","58757","330680","333590","19032","56772","1858","mousetracking operator preview effect","0","0","0","no","true","no","1680"
"negative","undefined","1","undefined","undefined","white","no","legacy","legacy","legacy","0","relative","undefined","undefined","76","NA","0","0","0","0","0","0","0","92","92","0","15","0","no","03/08/19 09:41:41","A simple template for the mouse-tracking paradigm","yes","Experiment-TF.osexp","C:\Users\Kristen\Documents\opPreviewExperiment-master\procedure","no","mono","no","24","no","black","no","yes","1050","legacy","76","15","C:/Users/Kristen/Documents/opPreviewExperiment-master/procedure/subject-4.csv","legacy","Kafkaesque Koffka","3.2.6","add","0","l","NA","NA","l","l","16610","NA","NA","17162","16610","2","2282","legacy","small","1024","2","48000","-16","experiment","8_2_add_FNI.jpg","4","even","legacy","333615","NA","75368","NA","NA","1856","NA","1869","58757","333615","337016","19032","56772","1858","mousetracking operator preview effect","0","0","0","no","false","no","1680"
"negative","undefined","1","undefined","undefined","white","no","legacy","legacy","legacy","0","relative","undefined","undefined","77","NA","0","0","0","0","0","0","0","93","93","0","15","0","no","03/08/19 09:41:41","A simple template for the mouse-tracking paradigm","yes","Experiment-TF.osexp","C:\Users\Kristen\Documents\opPreviewExperiment-master\procedure","no","mono","no","24","no","black","no","yes","1050","legacy","77","15","C:/Users/Kristen/Documents/opPreviewExperiment-master/procedure/subject-4.csv","legacy","Kafkaesque Koffka","3.2.6","mult","0","a","NA","NA","l","l","16610","NA","NA","17162","16610","2","2039","legacy","large","1024","2","48000","-16","experiment","6_8_mult_true.jpg","4","even","legacy","337030","NA","75368","NA","NA","1856","NA","1869","58757","337030","340204","19032","56772","1858","mousetracking operator preview effect","0","0","0","no","true","no","1680"
"negative","undefined","0","undefined","undefined","white","no","legacy","legacy","legacy","0","relative","undefined","undefined","78","NA","0","0","0","0","0","0","0","94","94","0","15","0","no","03/08/19 09:41:41","A simple template for the mouse-tracking paradigm","yes","Experiment-TF.osexp","C:\Users\Kristen\Documents\opPreviewExperiment-master\procedure","no","mono","no","24","no","black","no","yes","1050","legacy","78","15","C:/Users/Kristen/Documents/opPreviewExperiment-master/procedure/subject-4.csv","legacy","Kafkaesque Koffka","3.2.6","mult","0","l","NA","NA","l","l","16610","NA","NA","17162","16610","2","2182","legacy","large","1024","2","48000","-16","experiment","4_9_mult_true.jpg","4","even","legacy","340224","NA","75368","NA","NA","1856","NA","1869","58757","340224","344538","19032","56772","1858","mousetracking operator preview effect","0","0","0","no","true","no","1680"
"neutral","undefined","1","undefined","undefined","white","no","legacy","legacy","legacy","0","relative","undefined","undefined","79","NA","0","0","0","0","0","0","0","95","95","0","15","0","no","03/08/19 09:41:41","A simple template for the mouse-tracking paradigm","yes","Experiment-TF.osexp","C:\Users\Kristen\Documents\opPreviewExperiment-master\procedure","no","mono","no","24","no","black","no","yes","1050","legacy","79","15","C:/Users/Kristen/Documents/opPreviewExperiment-master/procedure/subject-4.csv","legacy","Kafkaesque Koffka","3.2.6","mult","0","l","NA","NA","l","l","16610","NA","NA","17162","16610","2","2422","legacy","small","1024","2","48000","-16","experiment","8_2_mult_FI.jpg","4","even","legacy","344571","NA","75368","NA","NA","1856","NA","1869","58757","344571","347960","19032","56772","1858","mousetracking operator preview effect","0","0","0","no","false","no","1680"
"neutral","undefined","1","undefined","undefined","white","no","legacy","legacy","legacy","0","relative","undefined","undefined","80","NA","0","0","0","0","0","0","0","96","96","0","15","0","no","03/08/19 09:41:41","A simple template for the mouse-tracking paradigm","yes","Experiment-TF.osexp","C:\Users\Kristen\Documents\opPreviewExperiment-master\procedure","no","mono","no","24","no","black","no","yes","1050","legacy","80","15","C:/Users/Kristen/Documents/opPreviewExperiment-master/procedure/subject-4.csv","legacy","Kafkaesque Koffka","3.2.6","add","0","a","NA","NA","l","l","16610","NA","NA","17162","16610","2","2146","legacy","small","1024","2","48000","-16","experiment","5_3_add_true.jpg","4","even","legacy","347982","NA","75368","NA","NA","1856","NA","1869","58757","347982","351092","19032","56772","1858","mousetracking operator preview effect","0","0","0","no","true","no","1680"
"neutral","undefined","1","undefined","undefined","white","no","legacy","legacy","legacy","0","relative","undefined","undefined","81","NA","0","0","0","0","0","0","0","97","97","0","15","0","no","03/08/19 09:41:41","A simple template for the mouse-tracking paradigm","yes","Experiment-TF.osexp","C:\Users\Kristen\Documents\opPreviewExperiment-master\procedure","no","mono","no","24","no","black","no","yes","1050","legacy","81","15","C:/Users/Kristen/Documents/opPreviewExperiment-master/procedure/subject-4.csv","legacy","Kafkaesque Koffka","3.2.6","mult","0","a","NA","NA","l","l","16610","NA","NA","17162","16610","2","1381","legacy","small","1024","2","48000","-16","experiment","2_7_mult_true.jpg","4","even","legacy","351121","NA","75368","NA","NA","1856","NA","1869","58757","351121","353452","19032","56772","1858","mousetracking operator preview effect","0","0","0","no","true","no","1680"
"negative","undefined","1","undefined","undefined","white","no","legacy","legacy","legacy","0","relative","undefined","undefined","82","NA","0","0","0","0","0","0","0","98","98","0","15","0","no","03/08/19 09:41:41","A simple template for the mouse-tracking paradigm","yes","Experiment-TF.osexp","C:\Users\Kristen\Documents\opPreviewExperiment-master\procedure","no","mono","no","24","no","black","no","yes","1050","legacy","82","15","C:/Users/Kristen/Documents/opPreviewExperiment-master/procedure/subject-4.csv","legacy","Kafkaesque Koffka","3.2.6","add","0","a","NA","NA","l","l","16610","NA","NA","17162","16610","2","1173","legacy","small","1024","2","48000","-16","experiment","2_7_add_true.jpg","4","even","legacy","353479","NA","75368","NA","NA","1856","NA","1869","58757","353479","355764","19032","56772","1858","mousetracking operator preview effect","0","0","0","no","true","no","1680"
"neutral","undefined","1","undefined","undefined","white","no","legacy","legacy","legacy","0","relative","undefined","undefined","83","NA","0","0","0","0","0","0","0","99","99","0","15","0","no","03/08/19 09:41:41","A simple template for the mouse-tracking paradigm","yes","Experiment-TF.osexp","C:\Users\Kristen\Documents\opPreviewExperiment-master\procedure","no","mono","no","24","no","black","no","yes","1050","legacy","83","15","C:/Users/Kristen/Documents/opPreviewExperiment-master/procedure/subject-4.csv","legacy","Kafkaesque Koffka","3.2.6","add","0","a","NA","NA","l","l","16610","NA","NA","17162","16610","2","2422","legacy","large","1024","2","48000","-16","experiment","8_4_add_true.jpg","4","even","legacy","355792","NA","75368","NA","NA","1856","NA","1869","58757","355792","359167","19032","56772","1858","mousetracking operator preview effect","0","0","0","no","true","no","1680"
"neutral","undefined","1","undefined","undefined","white","no","legacy","legacy","legacy","0","relative","undefined","undefined","84","NA","0","0","0","0","0","0","0","100","100","0","15","0","no","03/08/19 09:41:41","A simple template for the mouse-tracking paradigm","yes","Experiment-TF.osexp","C:\Users\Kristen\Documents\opPreviewExperiment-master\procedure","no","mono","no","24","no","black","no","yes","1050","legacy","84","15","C:/Users/Kristen/Documents/opPreviewExperiment-master/procedure/subject-4.csv","legacy","Kafkaesque Koffka","3.2.6","add","0","l","NA","NA","l","l","16610","NA","NA","17162","16610","2","2859","legacy","large","1024","2","48000","-16","experiment","6_8_add_FNI.jpg","4","even","legacy","359188","NA","75368","NA","NA","1856","NA","1869","58757","359188","363013","19032","56772","1858","mousetracking operator preview effect","0","0","0","no","false","no","1680"
"negative","undefined","1","undefined","undefined","white","no","legacy","legacy","legacy","0","relative","undefined","undefined","85","NA","0","0","0","0","0","0","0","101","101","0","15","0","no","03/08/19 09:41:41","A simple template for the mouse-tracking paradigm","yes","Experiment-TF.osexp","C:\Users\Kristen\Documents\opPreviewExperiment-master\procedure","no","mono","no","24","no","black","no","yes","1050","legacy","85","15","C:/Users/Kristen/Documents/opPreviewExperiment-master/procedure/subject-4.csv","legacy","Kafkaesque Koffka","3.2.6","mult","0","l","NA","NA","l","l","16610","NA","NA","17162","16610","2","1390","legacy","large","1024","2","48000","-16","experiment","8_4_mult_FI.jpg","4","even","legacy","363033","NA","75368","NA","NA","1856","NA","1869","58757","363033","365539","19032","56772","1858","mousetracking operator preview effect","0","0","0","no","false","no","1680"
"negative","undefined","1","undefined","undefined","white","no","legacy","legacy","legacy","0","relative","undefined","undefined","86","NA","0","0","0","0","0","0","0","102","102","0","15","0","no","03/08/19 09:41:41","A simple template for the mouse-tracking paradigm","yes","Experiment-TF.osexp","C:\Users\Kristen\Documents\opPreviewExperiment-master\procedure","no","mono","no","24","no","black","no","yes","1050","legacy","86","15","C:/Users/Kristen/Documents/opPreviewExperiment-master/procedure/subject-4.csv","legacy","Kafkaesque Koffka","3.2.6","mult","0","l","NA","NA","l","l","16610","NA","NA","17162","16610","2","1738","legacy","small","1024","2","48000","-16","experiment","8_2_mult_FNI.jpg","4","even","legacy","365559","NA","75368","NA","NA","1856","NA","1869","58757","365559","368433","19032","56772","1858","mousetracking operator preview effect","0","0","0","no","false","no","1680"
"negative","undefined","1","undefined","undefined","white","no","legacy","legacy","legacy","0","relative","undefined","undefined","87","NA","0","0","0","0","0","0","0","103","103","0","15","0","no","03/08/19 09:41:41","A simple template for the mouse-tracking paradigm","yes","Experiment-TF.osexp","C:\Users\Kristen\Documents\opPreviewExperiment-master\procedure","no","mono","no","24","no","black","no","yes","1050","legacy","87","15","C:/Users/Kristen/Documents/opPreviewExperiment-master/procedure/subject-4.csv","legacy","Kafkaesque Koffka","3.2.6","add","0","a","NA","NA","l","l","16610","NA","NA","17162","16610","2","2684","legacy","large","1024","2","48000","-16","experiment","6_8_add_true.jpg","4","even","legacy","368458","NA","75368","NA","NA","1856","NA","1869","58757","368458","372264","19032","56772","1858","mousetracking operator preview effect","0","0","0","no","true","no","1680"
"neutral","undefined","1","undefined","undefined","white","no","legacy","legacy","legacy","0","relative","undefined","undefined","88","NA","0","0","0","0","0","0","0","104","104","0","15","0","no","03/08/19 09:41:41","A simple template for the mouse-tracking paradigm","yes","Experiment-TF.osexp","C:\Users\Kristen\Documents\opPreviewExperiment-master\procedure","no","mono","no","24","no","black","no","yes","1050","legacy","88","15","C:/Users/Kristen/Documents/opPreviewExperiment-master/procedure/subject-4.csv","legacy","Kafkaesque Koffka","3.2.6","add","0","a","NA","NA","l","l","16610","NA","NA","17162","16610","2","2513","legacy","small","1024","2","48000","-16","experiment","3_6_add_true.jpg","4","even","legacy","372285","NA","75368","NA","NA","1856","NA","1869","58757","372285","375762","19032","56772","1858","mousetracking operator preview effect","0","0","0","no","true","no","1680"
"neutral","undefined","1","undefined","undefined","white","no","legacy","legacy","legacy","0","relative","undefined","undefined","89","NA","0","0","0","0","0","0","0","105","105","0","15","0","no","03/08/19 09:41:41","A simple template for the mouse-tracking paradigm","yes","Experiment-TF.osexp","C:\Users\Kristen\Documents\opPreviewExperiment-master\procedure","no","mono","no","24","no","black","no","yes","1050","legacy","89","15","C:/Users/Kristen/Documents/opPreviewExperiment-master/procedure/subject-4.csv","legacy","Kafkaesque Koffka","3.2.6","add","0","l","NA","NA","l","l","16610","NA","NA","17162","16610","2","1843","legacy","small","1024","2","48000","-16","experiment","3_6_add_FNI.jpg","4","even","legacy","375777","NA","75368","NA","NA","1856","NA","1869","58757","375777","378585","19032","56772","1858","mousetracking operator preview effect","0","0","0","no","false","no","1680"
"negative","undefined","0","undefined","undefined","white","no","legacy","legacy","legacy","0","relative","undefined","undefined","90","NA","0","0","0","0","0","0","0","106","106","0","15","0","no","03/08/19 09:41:41","A simple template for the mouse-tracking paradigm","yes","Experiment-TF.osexp","C:\Users\Kristen\Documents\opPreviewExperiment-master\procedure","no","mono","no","24","no","black","no","yes","1050","legacy","90","15","C:/Users/Kristen/Documents/opPreviewExperiment-master/procedure/subject-4.csv","legacy","Kafkaesque Koffka","3.2.6","add","0","l","NA","NA","l","l","16610","NA","NA","17162","16610","2","4583","legacy","large","1024","2","48000","-16","experiment","9_7_add_true.jpg","4","even","legacy","378599","NA","75368","NA","NA","1856","NA","1869","58757","378599","385331","19032","56772","1858","mousetracking operator preview effect","0","0","0","no","true","no","1680"
"negative","undefined","1","undefined","undefined","white","no","legacy","legacy","legacy","0","relative","undefined","undefined","91","NA","0","0","0","0","0","0","0","107","107","0","15","0","no","03/08/19 09:41:41","A simple template for the mouse-tracking paradigm","yes","Experiment-TF.osexp","C:\Users\Kristen\Documents\opPreviewExperiment-master\procedure","no","mono","no","24","no","black","no","yes","1050","legacy","91","15","C:/Users/Kristen/Documents/opPreviewExperiment-master/procedure/subject-4.csv","legacy","Kafkaesque Koffka","3.2.6","mult","0","a","NA","NA","l","l","16610","NA","NA","17162","16610","2","2656","legacy","large","1024","2","48000","-16","experiment","4_9_mult_true.jpg","4","even","legacy","385363","NA","75368","NA","NA","1856","NA","1869","58757","385363","389135","19032","56772","1858","mousetracking operator preview effect","0","0","0","no","true","no","1680"
"neutral","undefined","1","undefined","undefined","white","no","legacy","legacy","legacy","0","relative","undefined","undefined","92","NA","0","0","0","0","0","0","0","108","108","0","15","0","no","03/08/19 09:41:41","A simple template for the mouse-tracking paradigm","yes","Experiment-TF.osexp","C:\Users\Kristen\Documents\opPreviewExperiment-master\procedure","no","mono","no","24","no","black","no","yes","1050","legacy","92","15","C:/Users/Kristen/Documents/opPreviewExperiment-master/procedure/subject-4.csv","legacy","Kafkaesque Koffka","3.2.6","add","0","a","NA","NA","l","l","16610","NA","NA","17162","16610","2","2512","legacy","large","1024","2","48000","-16","experiment","6_8_add_true.jpg","4","even","legacy","389158","NA","75368","NA","NA","1856","NA","1869","58757","389158","392634","19032","56772","1858","mousetracking operator preview effect","0","0","0","no","true","no","1680"
