"SOAcondition","acc","accuracy","average_response_time","avg_rt","background","bidi","canvas_backend","clock_backend","color_backend","compensation","coordinates","correct","correct_instruction1","count_block1_sequence","count_block2_sequence","count_block_1","count_block_2","count_breakScreen","count_experiment","count_finish","count_instruction1","count_instruction2","count_keyboard_script","count_logger","count_practiceBlock","count_practice_sequence","count_setup_script","custom_cursor","datetime","description","disable_garbage_collection","experiment_file","experiment_path","font_bold","font_family","font_italic","font_size","font_underline","foreground","form_clicks","fullscreen","height","keyboard_backend","live_row","live_row_practiceBlock","logfile","mouse_backend","opensesame_codename","opensesame_version","operation","repeat_cycle","response","response_breakScreen","response_finish","response_instruction1","response_instruction2","response_time","response_time_breakScreen","response_time_finish","response_time_instruction1","response_time_instruction2","round_decimals","rt","sampler_backend","size","sound_buf_size","sound_channels","sound_freq","sound_sample_size","start","stimulus","subject_nr","subject_parity","synth_backend","time_block1_sequence","time_block2_sequence","time_block_1","time_block_2","time_breakScreen","time_experiment","time_finish","time_instruction1","time_instruction2","time_keyboard_script","time_logger","time_practiceBlock","time_practice_sequence","time_setup_script","title","total_correct","total_response_time","total_responses","transparent_variables","truth","uniform_coordinates","width"
"negative","undefined","1","undefined","undefined","white","no","legacy","legacy","legacy","0","relative","undefined","undefined","NA","NA","0","0","0","0","0","0","0","0","0","0","0","0","no","03/06/19 08:33:36","A simple template for the mouse-tracking paradigm","yes","Experiment-TF.osexp","C:\Users\Kristen\Documents\opPreviewExperiment-master\procedure","no","mono","no","24","no","black","no","yes","1050","legacy","0","0","C:/Users/Kristen/Documents/opPreviewExperiment-master/procedure/subject-2.csv","legacy","Kafkaesque Koffka","3.2.6","mult","0","a","NA","NA","l","NA","7434","NA","NA","7434","NA","2","1518","legacy","NA","1024","2","48000","-16","experiment","0_3_mult_T.jpg","2","even","legacy","NA","NA","NA","NA","NA","2822","NA","2840","NA","10278","13002","10275","10278","2826","mousetracking operator preview effect","0","0","0","no","true","no","1680"
"negative","undefined","1","undefined","undefined","white","no","legacy","legacy","legacy","0","relative","undefined","undefined","NA","NA","0","0","0","0","0","0","0","1","1","0","1","0","no","03/06/19 08:33:36","A simple template for the mouse-tracking paradigm","yes","Experiment-TF.osexp","C:\Users\Kristen\Documents\opPreviewExperiment-master\procedure","no","mono","no","24","no","black","no","yes","1050","legacy","1","1","C:/Users/Kristen/Documents/opPreviewExperiment-master/procedure/subject-2.csv","legacy","Kafkaesque Koffka","3.2.6","add","0","a","NA","NA","l","NA","7434","NA","NA","7434","NA","2","794","legacy","NA","1024","2","48000","-16","experiment","1_4_add_T.jpg","2","even","legacy","NA","NA","NA","NA","NA","2822","NA","2840","NA","13124","15115","10275","13123","2826","mousetracking operator preview effect","0","0","0","no","true","no","1680"
"neutral","undefined","1","undefined","undefined","white","no","legacy","legacy","legacy","0","relative","undefined","undefined","NA","NA","0","0","0","0","0","0","0","2","2","0","2","0","no","03/06/19 08:33:36","A simple template for the mouse-tracking paradigm","yes","Experiment-TF.osexp","C:\Users\Kristen\Documents\opPreviewExperiment-master\procedure","no","mono","no","24","no","black","no","yes","1050","legacy","2","2","C:/Users/Kristen/Documents/opPreviewExperiment-master/procedure/subject-2.csv","legacy","Kafkaesque Koffka","3.2.6","add","0","l","NA","NA","l","NA","7434","NA","NA","7434","NA","2","846","legacy","NA","1024","2","48000","-16","experiment","0_3_add_F.jpg","2","even","legacy","NA","NA","NA","NA","NA","2822","NA","2840","NA","15130","16959","10275","15130","2826","mousetracking operator preview effect","0","0","0","no","false","no","1680"
"negative","undefined","1","undefined","undefined","white","no","legacy","legacy","legacy","0","relative","undefined","undefined","NA","NA","0","0","0","0","0","0","0","3","3","0","3","0","no","03/06/19 08:33:36","A simple template for the mouse-tracking paradigm","yes","Experiment-TF.osexp","C:\Users\Kristen\Documents\opPreviewExperiment-master\procedure","no","mono","no","24","no","black","no","yes","1050","legacy","3","3","C:/Users/Kristen/Documents/opPreviewExperiment-master/procedure/subject-2.csv","legacy","Kafkaesque Koffka","3.2.6","mult","0","l","NA","NA","l","NA","7434","NA","NA","7434","NA","2","1008","legacy","NA","1024","2","48000","-16","experiment","1_4_mult_F.jpg","2","even","legacy","NA","NA","NA","NA","NA","2822","NA","2840","NA","16973","19101","10275","16973","2826","mousetracking operator preview effect","0","0","0","no","false","no","1680"
"negative","undefined","1","undefined","undefined","white","no","legacy","legacy","legacy","0","relative","undefined","undefined","NA","NA","0","0","0","0","0","0","0","4","4","0","4","0","no","03/06/19 08:33:36","A simple template for the mouse-tracking paradigm","yes","Experiment-TF.osexp","C:\Users\Kristen\Documents\opPreviewExperiment-master\procedure","no","mono","no","24","no","black","no","yes","1050","legacy","4","4","C:/Users/Kristen/Documents/opPreviewExperiment-master/procedure/subject-2.csv","legacy","Kafkaesque Koffka","3.2.6","add","0","l","NA","NA","l","NA","7434","NA","NA","7434","NA","2","1406","legacy","NA","1024","2","48000","-16","experiment","1_4_add_F.jpg","2","even","legacy","NA","NA","NA","NA","NA","2822","NA","2840","NA","19116","21666","10275","19116","2826","mousetracking operator preview effect","0","0","0","no","false","no","1680"
"neutral","undefined","1","undefined","undefined","white","no","legacy","legacy","legacy","0","relative","undefined","undefined","NA","NA","0","0","0","0","0","0","0","5","5","0","5","0","no","03/06/19 08:33:36","A simple template for the mouse-tracking paradigm","yes","Experiment-TF.osexp","C:\Users\Kristen\Documents\opPreviewExperiment-master\procedure","no","mono","no","24","no","black","no","yes","1050","legacy","5","5","C:/Users/Kristen/Documents/opPreviewExperiment-master/procedure/subject-2.csv","legacy","Kafkaesque Koffka","3.2.6","mult","0","a","NA","NA","l","NA","7434","NA","NA","7434","NA","2","871","legacy","NA","1024","2","48000","-16","experiment","0_3_mult_T.jpg","2","even","legacy","NA","NA","NA","NA","NA","2822","NA","2840","NA","21687","23525","10275","21687","2826","mousetracking operator preview effect","0","0","0","no","true","no","1680"
"negative","undefined","1","undefined","undefined","white","no","legacy","legacy","legacy","0","relative","undefined","undefined","NA","NA","0","0","0","0","0","0","0","6","6","0","6","0","no","03/06/19 08:33:36","A simple template for the mouse-tracking paradigm","yes","Experiment-TF.osexp","C:\Users\Kristen\Documents\opPreviewExperiment-master\procedure","no","mono","no","24","no","black","no","yes","1050","legacy","6","6","C:/Users/Kristen/Documents/opPreviewExperiment-master/procedure/subject-2.csv","legacy","Kafkaesque Koffka","3.2.6","add","0","l","NA","NA","l","NA","7434","NA","NA","7434","NA","2","1266","legacy","NA","1024","2","48000","-16","experiment","0_3_add_F.jpg","2","even","legacy","NA","NA","NA","NA","NA","2822","NA","2840","NA","23547","25919","10275","23547","2826","mousetracking operator preview effect","0","0","0","no","false","no","1680"
"neutral","undefined","1","undefined","undefined","white","no","legacy","legacy","legacy","0","relative","undefined","undefined","NA","NA","0","0","0","0","0","0","0","7","7","0","7","0","no","03/06/19 08:33:36","A simple template for the mouse-tracking paradigm","yes","Experiment-TF.osexp","C:\Users\Kristen\Documents\opPreviewExperiment-master\procedure","no","mono","no","24","no","black","no","yes","1050","legacy","7","7","C:/Users/Kristen/Documents/opPreviewExperiment-master/procedure/subject-2.csv","legacy","Kafkaesque Koffka","3.2.6","add","0","a","NA","NA","l","NA","7434","NA","NA","7434","NA","2","735","legacy","NA","1024","2","48000","-16","experiment","1_4_add_T.jpg","2","even","legacy","NA","NA","NA","NA","NA","2822","NA","2840","NA","25938","27614","10275","25938","2826","mousetracking operator preview effect","0","0","0","no","true","no","1680"
"neutral","undefined","1","undefined","undefined","white","no","legacy","legacy","legacy","0","relative","undefined","undefined","NA","NA","0","0","0","0","0","0","0","8","8","0","8","0","no","03/06/19 08:33:36","A simple template for the mouse-tracking paradigm","yes","Experiment-TF.osexp","C:\Users\Kristen\Documents\opPreviewExperiment-master\procedure","no","mono","no","24","no","black","no","yes","1050","legacy","8","8","C:/Users/Kristen/Documents/opPreviewExperiment-master/procedure/subject-2.csv","legacy","Kafkaesque Koffka","3.2.6","mult","0","l","NA","NA","l","NA","7434","NA","NA","7434","NA","2","870","legacy","NA","1024","2","48000","-16","experiment","0_3_mult_F.jpg","2","even","legacy","NA","NA","NA","NA","NA","2822","NA","2840","NA","27638","29452","10275","27638","2826","mousetracking operator preview effect","0","0","0","no","false","no","1680"
"negative","undefined","1","undefined","undefined","white","no","legacy","legacy","legacy","0","relative","undefined","undefined","NA","NA","0","0","0","0","0","0","0","9","9","0","9","0","no","03/06/19 08:33:36","A simple template for the mouse-tracking paradigm","yes","Experiment-TF.osexp","C:\Users\Kristen\Documents\opPreviewExperiment-master\procedure","no","mono","no","24","no","black","no","yes","1050","legacy","9","9","C:/Users/Kristen/Documents/opPreviewExperiment-master/procedure/subject-2.csv","legacy","Kafkaesque Koffka","3.2.6","mult","0","l","NA","NA","l","NA","7434","NA","NA","7434","NA","2","887","legacy","NA","1024","2","48000","-16","experiment","0_3_mult_F.jpg","2","even","legacy","NA","NA","NA","NA","NA","2822","NA","2840","NA","29583","31566","10275","29583","2826","mousetracking operator preview effect","0","0","0","no","false","no","1680"
"neutral","undefined","1","undefined","undefined","white","no","legacy","legacy","legacy","0","relative","undefined","undefined","NA","NA","0","0","0","0","0","0","0","10","10","0","10","0","no","03/06/19 08:33:36","A simple template for the mouse-tracking paradigm","yes","Experiment-TF.osexp","C:\Users\Kristen\Documents\opPreviewExperiment-master\procedure","no","mono","no","24","no","black","no","yes","1050","legacy","10","10","C:/Users/Kristen/Documents/opPreviewExperiment-master/procedure/subject-2.csv","legacy","Kafkaesque Koffka","3.2.6","add","0","a","NA","NA","l","NA","7434","NA","NA","7434","NA","2","927","legacy","NA","1024","2","48000","-16","experiment","0_3_add_T.jpg","2","even","legacy","NA","NA","NA","NA","NA","2822","NA","2840","NA","31584","33459","10275","31584","2826","mousetracking operator preview effect","0","0","0","no","true","no","1680"
"negative","undefined","1","undefined","undefined","white","no","legacy","legacy","legacy","0","relative","undefined","undefined","NA","NA","0","0","0","0","0","0","0","11","11","0","11","0","no","03/06/19 08:33:36","A simple template for the mouse-tracking paradigm","yes","Experiment-TF.osexp","C:\Users\Kristen\Documents\opPreviewExperiment-master\procedure","no","mono","no","24","no","black","no","yes","1050","legacy","11","11","C:/Users/Kristen/Documents/opPreviewExperiment-master/procedure/subject-2.csv","legacy","Kafkaesque Koffka","3.2.6","add","0","a","NA","NA","l","NA","7434","NA","NA","7434","NA","2","578","legacy","NA","1024","2","48000","-16","experiment","0_3_add_T.jpg","2","even","legacy","NA","NA","NA","NA","NA","2822","NA","2840","NA","33481","35151","10275","33481","2826","mousetracking operator preview effect","0","0","0","no","true","no","1680"
"negative","undefined","1","undefined","undefined","white","no","legacy","legacy","legacy","0","relative","undefined","undefined","NA","NA","0","0","0","0","0","0","0","12","12","0","12","0","no","03/06/19 08:33:36","A simple template for the mouse-tracking paradigm","yes","Experiment-TF.osexp","C:\Users\Kristen\Documents\opPreviewExperiment-master\procedure","no","mono","no","24","no","black","no","yes","1050","legacy","12","12","C:/Users/Kristen/Documents/opPreviewExperiment-master/procedure/subject-2.csv","legacy","Kafkaesque Koffka","3.2.6","mult","0","a","NA","NA","l","NA","7434","NA","NA","7434","NA","2","652","legacy","NA","1024","2","48000","-16","experiment","1_4_mult_T.jpg","2","even","legacy","NA","NA","NA","NA","NA","2822","NA","2840","NA","35205","36993","10275","35205","2826","mousetracking operator preview effect","0","0","0","no","true","no","1680"
"neutral","undefined","1","undefined","undefined","white","no","legacy","legacy","legacy","0","relative","undefined","undefined","NA","NA","0","0","0","0","0","0","0","13","13","0","13","0","no","03/06/19 08:33:36","A simple template for the mouse-tracking paradigm","yes","Experiment-TF.osexp","C:\Users\Kristen\Documents\opPreviewExperiment-master\procedure","no","mono","no","24","no","black","no","yes","1050","legacy","13","13","C:/Users/Kristen/Documents/opPreviewExperiment-master/procedure/subject-2.csv","legacy","Kafkaesque Koffka","3.2.6","add","0","l","NA","NA","l","NA","7434","NA","NA","7434","NA","2","828","legacy","NA","1024","2","48000","-16","experiment","1_4_add_F.jpg","2","even","legacy","NA","NA","NA","NA","NA","2822","NA","2840","NA","37013","38795","10275","37013","2826","mousetracking operator preview effect","0","0","0","no","false","no","1680"
"neutral","undefined","0","undefined","undefined","white","no","legacy","legacy","legacy","0","relative","undefined","undefined","NA","NA","0","0","0","0","0","0","0","14","14","0","14","0","no","03/06/19 08:33:36","A simple template for the mouse-tracking paradigm","yes","Experiment-TF.osexp","C:\Users\Kristen\Documents\opPreviewExperiment-master\procedure","no","mono","no","24","no","black","no","yes","1050","legacy","14","14","C:/Users/Kristen/Documents/opPreviewExperiment-master/procedure/subject-2.csv","legacy","Kafkaesque Koffka","3.2.6","mult","0","l","NA","NA","l","NA","7434","NA","NA","7434","NA","2","1294","legacy","NA","1024","2","48000","-16","experiment","1_4_mult_T.jpg","2","even","legacy","NA","NA","NA","NA","NA","2822","NA","2840","NA","38816","42094","10275","38816","2826","mousetracking operator preview effect","0","0","0","no","true","no","1680"
"neutral","undefined","1","undefined","undefined","white","no","legacy","legacy","legacy","0","relative","undefined","undefined","NA","NA","0","0","0","0","0","0","0","15","15","0","15","0","no","03/06/19 08:33:36","A simple template for the mouse-tracking paradigm","yes","Experiment-TF.osexp","C:\Users\Kristen\Documents\opPreviewExperiment-master\procedure","no","mono","no","24","no","black","no","yes","1050","legacy","15","15","C:/Users/Kristen/Documents/opPreviewExperiment-master/procedure/subject-2.csv","legacy","Kafkaesque Koffka","3.2.6","mult","0","l","NA","NA","l","NA","7434","NA","NA","7434","NA","2","1081","legacy","NA","1024","2","48000","-16","experiment","1_4_mult_F.jpg","2","even","legacy","NA","NA","NA","NA","NA","2822","NA","2840","NA","42113","44146","10275","42112","2826","mousetracking operator preview effect","0","0","0","no","false","no","1680"
"negative","undefined","0","undefined","undefined","white","no","legacy","legacy","legacy","0","relative","undefined","undefined","0","NA","0","0","0","0","0","0","0","16","16","0","15","0","no","03/06/19 08:33:36","A simple template for the mouse-tracking paradigm","yes","Experiment-TF.osexp","C:\Users\Kristen\Documents\opPreviewExperiment-master\procedure","no","mono","no","24","no","black","no","yes","1050","legacy","0","15","C:/Users/Kristen/Documents/opPreviewExperiment-master/procedure/subject-2.csv","legacy","Kafkaesque Koffka","3.2.6","mult","0","a","NA","NA","l","l","741","NA","NA","7434","741","2","2368","legacy","large","1024","2","48000","-16","experiment","8_4_mult_FNI.jpg","2","even","legacy","44914","NA","44910","NA","NA","2822","NA","2840","44169","44914","49426","10275","42112","2826","mousetracking operator preview effect","0","0","0","no","false","no","1680"
"negative","undefined","1","undefined","undefined","white","no","legacy","legacy","legacy","0","relative","undefined","undefined","1","NA","0","0","0","0","0","0","0","17","17","0","15","0","no","03/06/19 08:33:36","A simple template for the mouse-tracking paradigm","yes","Experiment-TF.osexp","C:\Users\Kristen\Documents\opPreviewExperiment-master\procedure","no","mono","no","24","no","black","no","yes","1050","legacy","1","15","C:/Users/Kristen/Documents/opPreviewExperiment-master/procedure/subject-2.csv","legacy","Kafkaesque Koffka","3.2.6","mult","0","a","NA","NA","l","l","741","NA","NA","7434","741","2","2304","legacy","large","1024","2","48000","-16","experiment","4_9_mult_true.jpg","2","even","legacy","49459","NA","44910","NA","NA","2822","NA","2840","44169","49459","52900","10275","42112","2826","mousetracking operator preview effect","0","0","0","no","true","no","1680"
"negative","undefined","1","undefined","undefined","white","no","legacy","legacy","legacy","0","relative","undefined","undefined","2","NA","0","0","0","0","0","0","0","18","18","0","15","0","no","03/06/19 08:33:36","A simple template for the mouse-tracking paradigm","yes","Experiment-TF.osexp","C:\Users\Kristen\Documents\opPreviewExperiment-master\procedure","no","mono","no","24","no","black","no","yes","1050","legacy","2","15","C:/Users/Kristen/Documents/opPreviewExperiment-master/procedure/subject-2.csv","legacy","Kafkaesque Koffka","3.2.6","mult","0","a","NA","NA","l","l","741","NA","NA","7434","741","2","1078","legacy","large","1024","2","48000","-16","experiment","4_9_mult_true.jpg","2","even","legacy","52927","NA","44910","NA","NA","2822","NA","2840","44169","52927","55115","10275","42112","2826","mousetracking operator preview effect","0","0","0","no","true","no","1680"
"neutral","undefined","1","undefined","undefined","white","no","legacy","legacy","legacy","0","relative","undefined","undefined","3","NA","0","0","0","0","0","0","0","19","19","0","15","0","no","03/06/19 08:33:36","A simple template for the mouse-tracking paradigm","yes","Experiment-TF.osexp","C:\Users\Kristen\Documents\opPreviewExperiment-master\procedure","no","mono","no","24","no","black","no","yes","1050","legacy","3","15","C:/Users/Kristen/Documents/opPreviewExperiment-master/procedure/subject-2.csv","legacy","Kafkaesque Koffka","3.2.6","mult","0","l","NA","NA","l","l","741","NA","NA","7434","741","2","1562","legacy","large","1024","2","48000","-16","experiment","6_8_mult_FI.jpg","2","even","legacy","55130","NA","44910","NA","NA","2822","NA","2840","44169","55130","57671","10275","42112","2826","mousetracking operator preview effect","0","0","0","no","false","no","1680"
"neutral","undefined","1","undefined","undefined","white","no","legacy","legacy","legacy","0","relative","undefined","undefined","4","NA","0","0","0","0","0","0","0","20","20","0","15","0","no","03/06/19 08:33:36","A simple template for the mouse-tracking paradigm","yes","Experiment-TF.osexp","C:\Users\Kristen\Documents\opPreviewExperiment-master\procedure","no","mono","no","24","no","black","no","yes","1050","legacy","4","15","C:/Users/Kristen/Documents/opPreviewExperiment-master/procedure/subject-2.csv","legacy","Kafkaesque Koffka","3.2.6","mult","0","l","NA","NA","l","l","741","NA","NA","7434","741","2","15476","legacy","small","1024","2","48000","-16","experiment","8_2_mult_FI.jpg","2","even","legacy","57694","NA","44910","NA","NA","2822","NA","2840","44169","57694","74128","10275","42112","2826","mousetracking operator preview effect","0","0","0","no","false","no","1680"
"negative","undefined","1","undefined","undefined","white","no","legacy","legacy","legacy","0","relative","undefined","undefined","5","NA","0","0","0","0","0","0","0","21","21","0","15","0","no","03/06/19 08:33:36","A simple template for the mouse-tracking paradigm","yes","Experiment-TF.osexp","C:\Users\Kristen\Documents\opPreviewExperiment-master\procedure","no","mono","no","24","no","black","no","yes","1050","legacy","5","15","C:/Users/Kristen/Documents/opPreviewExperiment-master/procedure/subject-2.csv","legacy","Kafkaesque Koffka","3.2.6","add","0","l","NA","NA","l","l","741","NA","NA","7434","741","2","930","legacy","small","1024","2","48000","-16","experiment","2_7_add_FI.jpg","2","even","legacy","74150","NA","44910","NA","NA","2822","NA","2840","44169","74150","76229","10275","42112","2826","mousetracking operator preview effect","0","0","0","no","false","no","1680"
"neutral","undefined","1","undefined","undefined","white","no","legacy","legacy","legacy","0","relative","undefined","undefined","6","NA","0","0","0","0","0","0","0","22","22","0","15","0","no","03/06/19 08:33:36","A simple template for the mouse-tracking paradigm","yes","Experiment-TF.osexp","C:\Users\Kristen\Documents\opPreviewExperiment-master\procedure","no","mono","no","24","no","black","no","yes","1050","legacy","6","15","C:/Users/Kristen/Documents/opPreviewExperiment-master/procedure/subject-2.csv","legacy","Kafkaesque Koffka","3.2.6","mult","0","a","NA","NA","l","l","741","NA","NA","7434","741","2","1338","legacy","small","1024","2","48000","-16","experiment","5_3_mult_true.jpg","2","even","legacy","76250","NA","44910","NA","NA","2822","NA","2840","44169","76250","78567","10275","42112","2826","mousetracking operator preview effect","0","0","0","no","true","no","1680"
"negative","undefined","0","undefined","undefined","white","no","legacy","legacy","legacy","0","relative","undefined","undefined","7","NA","0","0","0","0","0","0","0","23","23","0","15","0","no","03/06/19 08:33:36","A simple template for the mouse-tracking paradigm","yes","Experiment-TF.osexp","C:\Users\Kristen\Documents\opPreviewExperiment-master\procedure","no","mono","no","24","no","black","no","yes","1050","legacy","7","15","C:/Users/Kristen/Documents/opPreviewExperiment-master/procedure/subject-2.csv","legacy","Kafkaesque Koffka","3.2.6","add","0","l","NA","NA","l","l","741","NA","NA","7434","741","2","1264","legacy","small","1024","2","48000","-16","experiment","8_2_add_true.jpg","2","even","legacy","78587","NA","44910","NA","NA","2822","NA","2840","44169","78587","82007","10275","42112","2826","mousetracking operator preview effect","0","0","0","no","true","no","1680"
"neutral","undefined","0","undefined","undefined","white","no","legacy","legacy","legacy","0","relative","undefined","undefined","8","NA","0","0","0","0","0","0","0","24","24","0","15","0","no","03/06/19 08:33:36","A simple template for the mouse-tracking paradigm","yes","Experiment-TF.osexp","C:\Users\Kristen\Documents\opPreviewExperiment-master\procedure","no","mono","no","24","no","black","no","yes","1050","legacy","8","15","C:/Users/Kristen/Documents/opPreviewExperiment-master/procedure/subject-2.csv","legacy","Kafkaesque Koffka","3.2.6","mult","0","l","NA","NA","l","l","741","NA","NA","7434","741","2","1907","legacy","large","1024","2","48000","-16","experiment","9_7_mult_true.jpg","2","even","legacy","82042","NA","44910","NA","NA","2822","NA","2840","44169","82042","85952","10275","42112","2826","mousetracking operator preview effect","0","0","0","no","true","no","1680"
"negative","undefined","1","undefined","undefined","white","no","legacy","legacy","legacy","0","relative","undefined","undefined","9","NA","0","0","0","0","0","0","0","25","25","0","15","0","no","03/06/19 08:33:36","A simple template for the mouse-tracking paradigm","yes","Experiment-TF.osexp","C:\Users\Kristen\Documents\opPreviewExperiment-master\procedure","no","mono","no","24","no","black","no","yes","1050","legacy","9","15","C:/Users/Kristen/Documents/opPreviewExperiment-master/procedure/subject-2.csv","legacy","Kafkaesque Koffka","3.2.6","add","0","a","NA","NA","l","l","741","NA","NA","7434","741","2","764","legacy","small","1024","2","48000","-16","experiment","2_7_add_true.jpg","2","even","legacy","85982","NA","44910","NA","NA","2822","NA","2840","44169","85982","87896","10275","42112","2826","mousetracking operator preview effect","0","0","0","no","true","no","1680"
"negative","undefined","1","undefined","undefined","white","no","legacy","legacy","legacy","0","relative","undefined","undefined","10","NA","0","0","0","0","0","0","0","26","26","0","15","0","no","03/06/19 08:33:36","A simple template for the mouse-tracking paradigm","yes","Experiment-TF.osexp","C:\Users\Kristen\Documents\opPreviewExperiment-master\procedure","no","mono","no","24","no","black","no","yes","1050","legacy","10","15","C:/Users/Kristen/Documents/opPreviewExperiment-master/procedure/subject-2.csv","legacy","Kafkaesque Koffka","3.2.6","mult","0","l","NA","NA","l","l","741","NA","NA","7434","741","2","1432","legacy","small","1024","2","48000","-16","experiment","2_7_mult_FNI.jpg","2","even","legacy","87916","NA","44910","NA","NA","2822","NA","2840","44169","87917","90484","10275","42112","2826","mousetracking operator preview effect","0","0","0","no","false","no","1680"
"negative","undefined","1","undefined","undefined","white","no","legacy","legacy","legacy","0","relative","undefined","undefined","11","NA","0","0","0","0","0","0","0","27","27","0","15","0","no","03/06/19 08:33:36","A simple template for the mouse-tracking paradigm","yes","Experiment-TF.osexp","C:\Users\Kristen\Documents\opPreviewExperiment-master\procedure","no","mono","no","24","no","black","no","yes","1050","legacy","11","15","C:/Users/Kristen/Documents/opPreviewExperiment-master/procedure/subject-2.csv","legacy","Kafkaesque Koffka","3.2.6","add","0","l","NA","NA","l","l","741","NA","NA","7434","741","2","1046","legacy","small","1024","2","48000","-16","experiment","3_6_add_FI.jpg","2","even","legacy","90506","NA","44910","NA","NA","2822","NA","2840","44169","90506","92695","10275","42112","2826","mousetracking operator preview effect","0","0","0","no","false","no","1680"
"neutral","undefined","1","undefined","undefined","white","no","legacy","legacy","legacy","0","relative","undefined","undefined","12","NA","0","0","0","0","0","0","0","28","28","0","15","0","no","03/06/19 08:33:36","A simple template for the mouse-tracking paradigm","yes","Experiment-TF.osexp","C:\Users\Kristen\Documents\opPreviewExperiment-master\procedure","no","mono","no","24","no","black","no","yes","1050","legacy","12","15","C:/Users/Kristen/Documents/opPreviewExperiment-master/procedure/subject-2.csv","legacy","Kafkaesque Koffka","3.2.6","add","0","a","NA","NA","l","l","741","NA","NA","7434","741","2","955","legacy","small","1024","2","48000","-16","experiment","3_6_add_true.jpg","2","even","legacy","92721","NA","44910","NA","NA","2822","NA","2840","44169","92722","94647","10275","42112","2826","mousetracking operator preview effect","0","0","0","no","true","no","1680"
"negative","undefined","0","undefined","undefined","white","no","legacy","legacy","legacy","0","relative","undefined","undefined","13","NA","0","0","0","0","0","0","0","29","29","0","15","0","no","03/06/19 08:33:36","A simple template for the mouse-tracking paradigm","yes","Experiment-TF.osexp","C:\Users\Kristen\Documents\opPreviewExperiment-master\procedure","no","mono","no","24","no","black","no","yes","1050","legacy","13","15","C:/Users/Kristen/Documents/opPreviewExperiment-master/procedure/subject-2.csv","legacy","Kafkaesque Koffka","3.2.6","mult","0","a","NA","NA","l","l","741","NA","NA","7434","741","2","1446","legacy","large","1024","2","48000","-16","experiment","9_7_mult_FNI.jpg","2","even","legacy","94668","NA","44910","NA","NA","2822","NA","2840","44169","94668","98281","10275","42112","2826","mousetracking operator preview effect","0","0","0","no","false","no","1680"
"neutral","undefined","1","undefined","undefined","white","no","legacy","legacy","legacy","0","relative","undefined","undefined","14","NA","0","0","0","0","0","0","0","30","30","0","15","0","no","03/06/19 08:33:36","A simple template for the mouse-tracking paradigm","yes","Experiment-TF.osexp","C:\Users\Kristen\Documents\opPreviewExperiment-master\procedure","no","mono","no","24","no","black","no","yes","1050","legacy","14","15","C:/Users/Kristen/Documents/opPreviewExperiment-master/procedure/subject-2.csv","legacy","Kafkaesque Koffka","3.2.6","mult","0","l","NA","NA","l","l","741","NA","NA","7434","741","2","950","legacy","small","1024","2","48000","-16","experiment","2_7_mult_FNI.jpg","2","even","legacy","98318","NA","44910","NA","NA","2822","NA","2840","44169","98319","100236","10275","42112","2826","mousetracking operator preview effect","0","0","0","no","false","no","1680"
"negative","undefined","1","undefined","undefined","white","no","legacy","legacy","legacy","0","relative","undefined","undefined","15","NA","0","0","0","0","0","0","0","31","31","0","15","0","no","03/06/19 08:33:36","A simple template for the mouse-tracking paradigm","yes","Experiment-TF.osexp","C:\Users\Kristen\Documents\opPreviewExperiment-master\procedure","no","mono","no","24","no","black","no","yes","1050","legacy","15","15","C:/Users/Kristen/Documents/opPreviewExperiment-master/procedure/subject-2.csv","legacy","Kafkaesque Koffka","3.2.6","mult","0","a","NA","NA","l","l","741","NA","NA","7434","741","2","1054","legacy","large","1024","2","48000","-16","experiment","6_8_mult_true.jpg","2","even","legacy","100256","NA","44910","NA","NA","2822","NA","2840","44169","100256","102447","10275","42112","2826","mousetracking operator preview effect","0","0","0","no","true","no","1680"
"negative","undefined","1","undefined","undefined","white","no","legacy","legacy","legacy","0","relative","undefined","undefined","16","NA","0","0","0","0","0","0","0","32","32","0","15","0","no","03/06/19 08:33:36","A simple template for the mouse-tracking paradigm","yes","Experiment-TF.osexp","C:\Users\Kristen\Documents\opPreviewExperiment-master\procedure","no","mono","no","24","no","black","no","yes","1050","legacy","16","15","C:/Users/Kristen/Documents/opPreviewExperiment-master/procedure/subject-2.csv","legacy","Kafkaesque Koffka","3.2.6","mult","0","a","NA","NA","l","l","741","NA","NA","7434","741","2","1710","legacy","large","1024","2","48000","-16","experiment","8_4_mult_true.jpg","2","even","legacy","102467","NA","44910","NA","NA","2822","NA","2840","44169","102468","105336","10275","42112","2826","mousetracking operator preview effect","0","0","0","no","true","no","1680"
"negative","undefined","1","undefined","undefined","white","no","legacy","legacy","legacy","0","relative","undefined","undefined","17","NA","0","0","0","0","0","0","0","33","33","0","15","0","no","03/06/19 08:33:36","A simple template for the mouse-tracking paradigm","yes","Experiment-TF.osexp","C:\Users\Kristen\Documents\opPreviewExperiment-master\procedure","no","mono","no","24","no","black","no","yes","1050","legacy","17","15","C:/Users/Kristen/Documents/opPreviewExperiment-master/procedure/subject-2.csv","legacy","Kafkaesque Koffka","3.2.6","mult","0","a","NA","NA","l","l","741","NA","NA","7434","741","2","1390","legacy","large","1024","2","48000","-16","experiment","9_7_mult_true.jpg","2","even","legacy","105363","NA","44910","NA","NA","2822","NA","2840","44169","105363","107890","10275","42112","2826","mousetracking operator preview effect","0","0","0","no","true","no","1680"
"negative","undefined","1","undefined","undefined","white","no","legacy","legacy","legacy","0","relative","undefined","undefined","18","NA","0","0","0","0","0","0","0","34","34","0","15","0","no","03/06/19 08:33:36","A simple template for the mouse-tracking paradigm","yes","Experiment-TF.osexp","C:\Users\Kristen\Documents\opPreviewExperiment-master\procedure","no","mono","no","24","no","black","no","yes","1050","legacy","18","15","C:/Users/Kristen/Documents/opPreviewExperiment-master/procedure/subject-2.csv","legacy","Kafkaesque Koffka","3.2.6","mult","0","l","NA","NA","l","l","741","NA","NA","7434","741","2","1276","legacy","large","1024","2","48000","-16","experiment","9_7_mult_FI.jpg","2","even","legacy","107911","NA","44910","NA","NA","2822","NA","2840","44169","107911","110323","10275","42112","2826","mousetracking operator preview effect","0","0","0","no","false","no","1680"
"neutral","undefined","1","undefined","undefined","white","no","legacy","legacy","legacy","0","relative","undefined","undefined","19","NA","0","0","0","0","0","0","0","35","35","0","15","0","no","03/06/19 08:33:36","A simple template for the mouse-tracking paradigm","yes","Experiment-TF.osexp","C:\Users\Kristen\Documents\opPreviewExperiment-master\procedure","no","mono","no","24","no","black","no","yes","1050","legacy","19","15","C:/Users/Kristen/Documents/opPreviewExperiment-master/procedure/subject-2.csv","legacy","Kafkaesque Koffka","3.2.6","add","0","a","NA","NA","l","l","741","NA","NA","7434","741","2","1073","legacy","small","1024","2","48000","-16","experiment","5_3_add_true.jpg","2","even","legacy","110344","NA","44910","NA","NA","2822","NA","2840","44169","110344","112398","10275","42112","2826","mousetracking operator preview effect","0","0","0","no","true","no","1680"
"negative","undefined","1","undefined","undefined","white","no","legacy","legacy","legacy","0","relative","undefined","undefined","20","NA","0","0","0","0","0","0","0","36","36","0","15","0","no","03/06/19 08:33:36","A simple template for the mouse-tracking paradigm","yes","Experiment-TF.osexp","C:\Users\Kristen\Documents\opPreviewExperiment-master\procedure","no","mono","no","24","no","black","no","yes","1050","legacy","20","15","C:/Users/Kristen/Documents/opPreviewExperiment-master/procedure/subject-2.csv","legacy","Kafkaesque Koffka","3.2.6","add","0","l","NA","NA","l","l","741","NA","NA","7434","741","2","1059","legacy","large","1024","2","48000","-16","experiment","6_8_add_FNI.jpg","2","even","legacy","112420","NA","44910","NA","NA","2822","NA","2840","44169","112420","114623","10275","42112","2826","mousetracking operator preview effect","0","0","0","no","false","no","1680"
"negative","undefined","0","undefined","undefined","white","no","legacy","legacy","legacy","0","relative","undefined","undefined","21","NA","0","0","0","0","0","0","0","37","37","0","15","0","no","03/06/19 08:33:36","A simple template for the mouse-tracking paradigm","yes","Experiment-TF.osexp","C:\Users\Kristen\Documents\opPreviewExperiment-master\procedure","no","mono","no","24","no","black","no","yes","1050","legacy","21","15","C:/Users/Kristen/Documents/opPreviewExperiment-master/procedure/subject-2.csv","legacy","Kafkaesque Koffka","3.2.6","add","0","l","NA","NA","l","l","741","NA","NA","7434","741","2","1068","legacy","large","1024","2","48000","-16","experiment","6_8_add_true.jpg","2","even","legacy","114644","NA","44910","NA","NA","2822","NA","2840","44169","114644","117866","10275","42112","2826","mousetracking operator preview effect","0","0","0","no","true","no","1680"
"neutral","undefined","0","undefined","undefined","white","no","legacy","legacy","legacy","0","relative","undefined","undefined","22","NA","0","0","0","0","0","0","0","38","38","0","15","0","no","03/06/19 08:33:36","A simple template for the mouse-tracking paradigm","yes","Experiment-TF.osexp","C:\Users\Kristen\Documents\opPreviewExperiment-master\procedure","no","mono","no","24","no","black","no","yes","1050","legacy","22","15","C:/Users/Kristen/Documents/opPreviewExperiment-master/procedure/subject-2.csv","legacy","Kafkaesque Koffka","3.2.6","add","0","a","NA","NA","l","l","741","NA","NA","7434","741","2","1834","legacy","large","1024","2","48000","-16","experiment","6_8_add_FNI.jpg","2","even","legacy","117891","NA","44910","NA","NA","2822","NA","2840","44169","117892","121702","10275","42112","2826","mousetracking operator preview effect","0","0","0","no","false","no","1680"
"negative","undefined","1","undefined","undefined","white","no","legacy","legacy","legacy","0","relative","undefined","undefined","23","NA","0","0","0","0","0","0","0","39","39","0","15","0","no","03/06/19 08:33:36","A simple template for the mouse-tracking paradigm","yes","Experiment-TF.osexp","C:\Users\Kristen\Documents\opPreviewExperiment-master\procedure","no","mono","no","24","no","black","no","yes","1050","legacy","23","15","C:/Users/Kristen/Documents/opPreviewExperiment-master/procedure/subject-2.csv","legacy","Kafkaesque Koffka","3.2.6","add","0","a","NA","NA","l","l","741","NA","NA","7434","741","2","1289","legacy","large","1024","2","48000","-16","experiment","4_9_add_true.jpg","2","even","legacy","121737","NA","44910","NA","NA","2822","NA","2840","44169","121738","124164","10275","42112","2826","mousetracking operator preview effect","0","0","0","no","true","no","1680"
"neutral","undefined","1","undefined","undefined","white","no","legacy","legacy","legacy","0","relative","undefined","undefined","24","NA","0","0","0","0","0","0","0","40","40","0","15","0","no","03/06/19 08:33:36","A simple template for the mouse-tracking paradigm","yes","Experiment-TF.osexp","C:\Users\Kristen\Documents\opPreviewExperiment-master\procedure","no","mono","no","24","no","black","no","yes","1050","legacy","24","15","C:/Users/Kristen/Documents/opPreviewExperiment-master/procedure/subject-2.csv","legacy","Kafkaesque Koffka","3.2.6","mult","0","l","NA","NA","l","l","741","NA","NA","7434","741","2","1015","legacy","large","1024","2","48000","-16","experiment","4_9_mult_FI.jpg","2","even","legacy","124190","NA","44910","NA","NA","2822","NA","2840","44169","124190","126185","10275","42112","2826","mousetracking operator preview effect","0","0","0","no","false","no","1680"
"negative","undefined","1","undefined","undefined","white","no","legacy","legacy","legacy","0","relative","undefined","undefined","25","NA","0","0","0","0","0","0","0","41","41","0","15","0","no","03/06/19 08:33:36","A simple template for the mouse-tracking paradigm","yes","Experiment-TF.osexp","C:\Users\Kristen\Documents\opPreviewExperiment-master\procedure","no","mono","no","24","no","black","no","yes","1050","legacy","25","15","C:/Users/Kristen/Documents/opPreviewExperiment-master/procedure/subject-2.csv","legacy","Kafkaesque Koffka","3.2.6","mult","0","a","NA","NA","l","l","741","NA","NA","7434","741","2","1401","legacy","large","1024","2","48000","-16","experiment","6_8_mult_true.jpg","2","even","legacy","126207","NA","44910","NA","NA","2822","NA","2840","44169","126207","128736","10275","42112","2826","mousetracking operator preview effect","0","0","0","no","true","no","1680"
"negative","undefined","1","undefined","undefined","white","no","legacy","legacy","legacy","0","relative","undefined","undefined","26","NA","0","0","0","0","0","0","0","42","42","0","15","0","no","03/06/19 08:33:36","A simple template for the mouse-tracking paradigm","yes","Experiment-TF.osexp","C:\Users\Kristen\Documents\opPreviewExperiment-master\procedure","no","mono","no","24","no","black","no","yes","1050","legacy","26","15","C:/Users/Kristen/Documents/opPreviewExperiment-master/procedure/subject-2.csv","legacy","Kafkaesque Koffka","3.2.6","add","0","a","NA","NA","l","l","741","NA","NA","7434","741","2","915","legacy","small","1024","2","48000","-16","experiment","5_3_add_true.jpg","2","even","legacy","128758","NA","44910","NA","NA","2822","NA","2840","44169","128758","130788","10275","42112","2826","mousetracking operator preview effect","0","0","0","no","true","no","1680"
"neutral","undefined","1","undefined","undefined","white","no","legacy","legacy","legacy","0","relative","undefined","undefined","27","NA","0","0","0","0","0","0","0","43","43","0","15","0","no","03/06/19 08:33:36","A simple template for the mouse-tracking paradigm","yes","Experiment-TF.osexp","C:\Users\Kristen\Documents\opPreviewExperiment-master\procedure","no","mono","no","24","no","black","no","yes","1050","legacy","27","15","C:/Users/Kristen/Documents/opPreviewExperiment-master/procedure/subject-2.csv","legacy","Kafkaesque Koffka","3.2.6","mult","0","a","NA","NA","l","l","741","NA","NA","7434","741","2","1068","legacy","large","1024","2","48000","-16","experiment","4_9_mult_true.jpg","2","even","legacy","130808","NA","44910","NA","NA","2822","NA","2840","44169","130808","132840","10275","42112","2826","mousetracking operator preview effect","0","0","0","no","true","no","1680"
"negative","undefined","1","undefined","undefined","white","no","legacy","legacy","legacy","0","relative","undefined","undefined","28","NA","0","0","0","0","0","0","0","44","44","0","15","0","no","03/06/19 08:33:36","A simple template for the mouse-tracking paradigm","yes","Experiment-TF.osexp","C:\Users\Kristen\Documents\opPreviewExperiment-master\procedure","no","mono","no","24","no","black","no","yes","1050","legacy","28","15","C:/Users/Kristen/Documents/opPreviewExperiment-master/procedure/subject-2.csv","legacy","Kafkaesque Koffka","3.2.6","add","0","a","NA","NA","l","l","741","NA","NA","7434","741","2","1064","legacy","large","1024","2","48000","-16","experiment","4_9_add_true.jpg","2","even","legacy","132862","NA","44910","NA","NA","2822","NA","2840","44169","132862","135042","10275","42112","2826","mousetracking operator preview effect","0","0","0","no","true","no","1680"
"negative","undefined","0","undefined","undefined","white","no","legacy","legacy","legacy","0","relative","undefined","undefined","29","NA","0","0","0","0","0","0","0","45","45","0","15","0","no","03/06/19 08:33:36","A simple template for the mouse-tracking paradigm","yes","Experiment-TF.osexp","C:\Users\Kristen\Documents\opPreviewExperiment-master\procedure","no","mono","no","24","no","black","no","yes","1050","legacy","29","15","C:/Users/Kristen/Documents/opPreviewExperiment-master/procedure/subject-2.csv","legacy","Kafkaesque Koffka","3.2.6","mult","0","l","NA","NA","l","l","741","NA","NA","7434","741","2","1363","legacy","large","1024","2","48000","-16","experiment","9_7_mult_true.jpg","2","even","legacy","135069","NA","44910","NA","NA","2822","NA","2840","44169","135069","138576","10275","42112","2826","mousetracking operator preview effect","0","0","0","no","true","no","1680"
"negative","undefined","1","undefined","undefined","white","no","legacy","legacy","legacy","0","relative","undefined","undefined","30","NA","0","0","0","0","0","0","0","46","46","0","15","0","no","03/06/19 08:33:36","A simple template for the mouse-tracking paradigm","yes","Experiment-TF.osexp","C:\Users\Kristen\Documents\opPreviewExperiment-master\procedure","no","mono","no","24","no","black","no","yes","1050","legacy","30","15","C:/Users/Kristen/Documents/opPreviewExperiment-master/procedure/subject-2.csv","legacy","Kafkaesque Koffka","3.2.6","mult","0","l","NA","NA","l","l","741","NA","NA","7434","741","2","1503","legacy","small","1024","2","48000","-16","experiment","3_6_mult_FI.jpg","2","even","legacy","138611","NA","44910","NA","NA","2822","NA","2840","44169","138611","141264","10275","42112","2826","mousetracking operator preview effect","0","0","0","no","false","no","1680"
"negative","undefined","1","undefined","undefined","white","no","legacy","legacy","legacy","0","relative","undefined","undefined","31","NA","0","0","0","0","0","0","0","47","47","0","15","0","no","03/06/19 08:33:36","A simple template for the mouse-tracking paradigm","yes","Experiment-TF.osexp","C:\Users\Kristen\Documents\opPreviewExperiment-master\procedure","no","mono","no","24","no","black","no","yes","1050","legacy","31","15","C:/Users/Kristen/Documents/opPreviewExperiment-master/procedure/subject-2.csv","legacy","Kafkaesque Koffka","3.2.6","add","0","l","NA","NA","l","l","741","NA","NA","7434","741","2","1619","legacy","large","1024","2","48000","-16","experiment","9_7_add_FNI.jpg","2","even","legacy","141286","NA","44910","NA","NA","2822","NA","2840","44169","141286","144021","10275","42112","2826","mousetracking operator preview effect","0","0","0","no","false","no","1680"
"neutral","undefined","1","undefined","undefined","white","no","legacy","legacy","legacy","0","relative","undefined","undefined","32","NA","0","0","0","0","0","0","0","48","48","0","15","0","no","03/06/19 08:33:36","A simple template for the mouse-tracking paradigm","yes","Experiment-TF.osexp","C:\Users\Kristen\Documents\opPreviewExperiment-master\procedure","no","mono","no","24","no","black","no","yes","1050","legacy","32","15","C:/Users/Kristen/Documents/opPreviewExperiment-master/procedure/subject-2.csv","legacy","Kafkaesque Koffka","3.2.6","mult","0","l","NA","NA","l","l","741","NA","NA","7434","741","2","1373","legacy","large","1024","2","48000","-16","experiment","4_9_mult_FNI.jpg","2","even","legacy","144046","NA","44910","NA","NA","2822","NA","2840","44169","144046","146398","10275","42112","2826","mousetracking operator preview effect","0","0","0","no","false","no","1680"
"negative","undefined","1","undefined","undefined","white","no","legacy","legacy","legacy","0","relative","undefined","undefined","33","NA","0","0","0","0","0","0","0","49","49","0","15","0","no","03/06/19 08:33:36","A simple template for the mouse-tracking paradigm","yes","Experiment-TF.osexp","C:\Users\Kristen\Documents\opPreviewExperiment-master\procedure","no","mono","no","24","no","black","no","yes","1050","legacy","33","15","C:/Users/Kristen/Documents/opPreviewExperiment-master/procedure/subject-2.csv","legacy","Kafkaesque Koffka","3.2.6","mult","0","l","NA","NA","l","l","741","NA","NA","7434","741","2","1433","legacy","large","1024","2","48000","-16","experiment","6_8_mult_FI.jpg","2","even","legacy","146426","NA","44910","NA","NA","2822","NA","2840","44169","146426","148996","10275","42112","2826","mousetracking operator preview effect","0","0","0","no","false","no","1680"
"negative","undefined","1","undefined","undefined","white","no","legacy","legacy","legacy","0","relative","undefined","undefined","34","NA","0","0","0","0","0","0","0","50","50","0","15","0","no","03/06/19 08:33:36","A simple template for the mouse-tracking paradigm","yes","Experiment-TF.osexp","C:\Users\Kristen\Documents\opPreviewExperiment-master\procedure","no","mono","no","24","no","black","no","yes","1050","legacy","34","15","C:/Users/Kristen/Documents/opPreviewExperiment-master/procedure/subject-2.csv","legacy","Kafkaesque Koffka","3.2.6","mult","0","a","NA","NA","l","l","741","NA","NA","7434","741","2","968","legacy","small","1024","2","48000","-16","experiment","8_2_mult_true.jpg","2","even","legacy","149016","NA","44910","NA","NA","2822","NA","2840","44169","149016","151139","10275","42112","2826","mousetracking operator preview effect","0","0","0","no","true","no","1680"
"neutral","undefined","1","undefined","undefined","white","no","legacy","legacy","legacy","0","relative","undefined","undefined","35","NA","0","0","0","0","0","0","0","51","51","0","15","0","no","03/06/19 08:33:36","A simple template for the mouse-tracking paradigm","yes","Experiment-TF.osexp","C:\Users\Kristen\Documents\opPreviewExperiment-master\procedure","no","mono","no","24","no","black","no","yes","1050","legacy","35","15","C:/Users/Kristen/Documents/opPreviewExperiment-master/procedure/subject-2.csv","legacy","Kafkaesque Koffka","3.2.6","mult","0","a","NA","NA","l","l","741","NA","NA","7434","741","2","588","legacy","small","1024","2","48000","-16","experiment","8_2_mult_true.jpg","2","even","legacy","151160","NA","44910","NA","NA","2822","NA","2840","44169","151160","152711","10275","42112","2826","mousetracking operator preview effect","0","0","0","no","true","no","1680"
"neutral","undefined","1","undefined","undefined","white","no","legacy","legacy","legacy","0","relative","undefined","undefined","36","NA","0","0","0","0","0","0","0","52","52","0","15","0","no","03/06/19 08:33:36","A simple template for the mouse-tracking paradigm","yes","Experiment-TF.osexp","C:\Users\Kristen\Documents\opPreviewExperiment-master\procedure","no","mono","no","24","no","black","no","yes","1050","legacy","36","15","C:/Users/Kristen/Documents/opPreviewExperiment-master/procedure/subject-2.csv","legacy","Kafkaesque Koffka","3.2.6","add","0","l","NA","NA","l","l","741","NA","NA","7434","741","2","993","legacy","small","1024","2","48000","-16","experiment","8_2_add_FNI.jpg","2","even","legacy","152731","NA","44910","NA","NA","2822","NA","2840","44169","152732","154695","10275","42112","2826","mousetracking operator preview effect","0","0","0","no","false","no","1680"
"neutral","undefined","1","undefined","undefined","white","no","legacy","legacy","legacy","0","relative","undefined","undefined","37","NA","0","0","0","0","0","0","0","53","53","0","15","0","no","03/06/19 08:33:36","A simple template for the mouse-tracking paradigm","yes","Experiment-TF.osexp","C:\Users\Kristen\Documents\opPreviewExperiment-master\procedure","no","mono","no","24","no","black","no","yes","1050","legacy","37","15","C:/Users/Kristen/Documents/opPreviewExperiment-master/procedure/subject-2.csv","legacy","Kafkaesque Koffka","3.2.6","mult","0","a","NA","NA","l","l","741","NA","NA","7434","741","2","1239","legacy","small","1024","2","48000","-16","experiment","2_7_mult_true.jpg","2","even","legacy","154715","NA","44910","NA","NA","2822","NA","2840","44169","154715","156930","10275","42112","2826","mousetracking operator preview effect","0","0","0","no","true","no","1680"
"neutral","undefined","1","undefined","undefined","white","no","legacy","legacy","legacy","0","relative","undefined","undefined","38","NA","0","0","0","0","0","0","0","54","54","0","15","0","no","03/06/19 08:33:36","A simple template for the mouse-tracking paradigm","yes","Experiment-TF.osexp","C:\Users\Kristen\Documents\opPreviewExperiment-master\procedure","no","mono","no","24","no","black","no","yes","1050","legacy","38","15","C:/Users/Kristen/Documents/opPreviewExperiment-master/procedure/subject-2.csv","legacy","Kafkaesque Koffka","3.2.6","mult","0","a","NA","NA","l","l","741","NA","NA","7434","741","2","966","legacy","large","1024","2","48000","-16","experiment","6_8_mult_true.jpg","2","even","legacy","156956","NA","44910","NA","NA","2822","NA","2840","44169","156956","158892","10275","42112","2826","mousetracking operator preview effect","0","0","0","no","true","no","1680"
"neutral","undefined","1","undefined","undefined","white","no","legacy","legacy","legacy","0","relative","undefined","undefined","39","NA","0","0","0","0","0","0","0","55","55","0","15","0","no","03/06/19 08:33:36","A simple template for the mouse-tracking paradigm","yes","Experiment-TF.osexp","C:\Users\Kristen\Documents\opPreviewExperiment-master\procedure","no","mono","no","24","no","black","no","yes","1050","legacy","39","15","C:/Users/Kristen/Documents/opPreviewExperiment-master/procedure/subject-2.csv","legacy","Kafkaesque Koffka","3.2.6","mult","0","l","NA","NA","l","l","741","NA","NA","7434","741","2","1489","legacy","large","1024","2","48000","-16","experiment","8_4_mult_FI.jpg","2","even","legacy","158917","NA","44910","NA","NA","2822","NA","2840","44169","158917","161387","10275","42112","2826","mousetracking operator preview effect","0","0","0","no","false","no","1680"
"negative","undefined","1","undefined","undefined","white","no","legacy","legacy","legacy","0","relative","undefined","undefined","40","NA","0","0","0","0","0","0","0","56","56","0","15","0","no","03/06/19 08:33:36","A simple template for the mouse-tracking paradigm","yes","Experiment-TF.osexp","C:\Users\Kristen\Documents\opPreviewExperiment-master\procedure","no","mono","no","24","no","black","no","yes","1050","legacy","40","15","C:/Users/Kristen/Documents/opPreviewExperiment-master/procedure/subject-2.csv","legacy","Kafkaesque Koffka","3.2.6","add","0","a","NA","NA","l","l","741","NA","NA","7434","741","2","911","legacy","small","1024","2","48000","-16","experiment","8_2_add_true.jpg","2","even","legacy","161408","NA","44910","NA","NA","2822","NA","2840","44169","161408","163432","10275","42112","2826","mousetracking operator preview effect","0","0","0","no","true","no","1680"
"neutral","undefined","1","undefined","undefined","white","no","legacy","legacy","legacy","0","relative","undefined","undefined","41","NA","0","0","0","0","0","0","0","57","57","0","15","0","no","03/06/19 08:33:36","A simple template for the mouse-tracking paradigm","yes","Experiment-TF.osexp","C:\Users\Kristen\Documents\opPreviewExperiment-master\procedure","no","mono","no","24","no","black","no","yes","1050","legacy","41","15","C:/Users/Kristen/Documents/opPreviewExperiment-master/procedure/subject-2.csv","legacy","Kafkaesque Koffka","3.2.6","mult","0","l","NA","NA","l","l","741","NA","NA","7434","741","2","864","legacy","small","1024","2","48000","-16","experiment","3_6_mult_FNI.jpg","2","even","legacy","163458","NA","44910","NA","NA","2822","NA","2840","44169","163458","165296","10275","42112","2826","mousetracking operator preview effect","0","0","0","no","false","no","1680"
"negative","undefined","1","undefined","undefined","white","no","legacy","legacy","legacy","0","relative","undefined","undefined","42","NA","0","0","0","0","0","0","0","58","58","0","15","0","no","03/06/19 08:33:36","A simple template for the mouse-tracking paradigm","yes","Experiment-TF.osexp","C:\Users\Kristen\Documents\opPreviewExperiment-master\procedure","no","mono","no","24","no","black","no","yes","1050","legacy","42","15","C:/Users/Kristen/Documents/opPreviewExperiment-master/procedure/subject-2.csv","legacy","Kafkaesque Koffka","3.2.6","add","0","a","NA","NA","l","l","741","NA","NA","7434","741","2","1352","legacy","large","1024","2","48000","-16","experiment","8_4_add_true.jpg","2","even","legacy","165317","NA","44910","NA","NA","2822","NA","2840","44169","165318","167821","10275","42112","2826","mousetracking operator preview effect","0","0","0","no","true","no","1680"
"neutral","undefined","1","undefined","undefined","white","no","legacy","legacy","legacy","0","relative","undefined","undefined","43","NA","0","0","0","0","0","0","0","59","59","0","15","0","no","03/06/19 08:33:36","A simple template for the mouse-tracking paradigm","yes","Experiment-TF.osexp","C:\Users\Kristen\Documents\opPreviewExperiment-master\procedure","no","mono","no","24","no","black","no","yes","1050","legacy","43","15","C:/Users/Kristen/Documents/opPreviewExperiment-master/procedure/subject-2.csv","legacy","Kafkaesque Koffka","3.2.6","add","0","l","NA","NA","l","l","741","NA","NA","7434","741","2","1206","legacy","large","1024","2","48000","-16","experiment","9_7_add_FNI.jpg","2","even","legacy","167848","NA","44910","NA","NA","2822","NA","2840","44169","167848","170021","10275","42112","2826","mousetracking operator preview effect","0","0","0","no","false","no","1680"
"negative","undefined","1","undefined","undefined","white","no","legacy","legacy","legacy","0","relative","undefined","undefined","44","NA","0","0","0","0","0","0","0","60","60","0","15","0","no","03/06/19 08:33:36","A simple template for the mouse-tracking paradigm","yes","Experiment-TF.osexp","C:\Users\Kristen\Documents\opPreviewExperiment-master\procedure","no","mono","no","24","no","black","no","yes","1050","legacy","44","15","C:/Users/Kristen/Documents/opPreviewExperiment-master/procedure/subject-2.csv","legacy","Kafkaesque Koffka","3.2.6","add","0","l","NA","NA","l","l","741","NA","NA","7434","741","2","1272","legacy","large","1024","2","48000","-16","experiment","6_8_add_FI.jpg","2","even","legacy","170042","NA","44910","NA","NA","2822","NA","2840","44169","170042","172467","10275","42112","2826","mousetracking operator preview effect","0","0","0","no","false","no","1680"
"neutral","undefined","1","undefined","undefined","white","no","legacy","legacy","legacy","0","relative","undefined","undefined","45","NA","0","0","0","0","0","0","0","61","61","0","15","0","no","03/06/19 08:33:36","A simple template for the mouse-tracking paradigm","yes","Experiment-TF.osexp","C:\Users\Kristen\Documents\opPreviewExperiment-master\procedure","no","mono","no","24","no","black","no","yes","1050","legacy","45","15","C:/Users/Kristen/Documents/opPreviewExperiment-master/procedure/subject-2.csv","legacy","Kafkaesque Koffka","3.2.6","add","0","l","NA","NA","l","l","741","NA","NA","7434","741","2","919","legacy","small","1024","2","48000","-16","experiment","2_7_add_FNI.jpg","2","even","legacy","172495","NA","44910","NA","NA","2822","NA","2840","44169","172495","174394","10275","42112","2826","mousetracking operator preview effect","0","0","0","no","false","no","1680"
"neutral","undefined","1","undefined","undefined","white","no","legacy","legacy","legacy","0","relative","undefined","undefined","46","NA","0","0","0","0","0","0","0","62","62","0","15","0","no","03/06/19 08:33:36","A simple template for the mouse-tracking paradigm","yes","Experiment-TF.osexp","C:\Users\Kristen\Documents\opPreviewExperiment-master\procedure","no","mono","no","24","no","black","no","yes","1050","legacy","46","15","C:/Users/Kristen/Documents/opPreviewExperiment-master/procedure/subject-2.csv","legacy","Kafkaesque Koffka","3.2.6","mult","0","a","NA","NA","l","l","741","NA","NA","7434","741","2","808","legacy","small","1024","2","48000","-16","experiment","5_3_mult_true.jpg","2","even","legacy","174413","NA","44910","NA","NA","2822","NA","2840","44169","174413","176184","10275","42112","2826","mousetracking operator preview effect","0","0","0","no","true","no","1680"
"negative","undefined","1","undefined","undefined","white","no","legacy","legacy","legacy","0","relative","undefined","undefined","47","NA","0","0","0","0","0","0","0","63","63","0","15","0","no","03/06/19 08:33:36","A simple template for the mouse-tracking paradigm","yes","Experiment-TF.osexp","C:\Users\Kristen\Documents\opPreviewExperiment-master\procedure","no","mono","no","24","no","black","no","yes","1050","legacy","47","15","C:/Users/Kristen/Documents/opPreviewExperiment-master/procedure/subject-2.csv","legacy","Kafkaesque Koffka","3.2.6","mult","0","l","NA","NA","l","l","741","NA","NA","7434","741","2","1087","legacy","large","1024","2","48000","-16","experiment","4_9_mult_FI.jpg","2","even","legacy","176207","NA","44910","NA","NA","2822","NA","2840","44169","176207","178432","10275","42112","2826","mousetracking operator preview effect","0","0","0","no","false","no","1680"
"neutral","undefined","1","undefined","undefined","white","no","legacy","legacy","legacy","0","relative","undefined","undefined","48","NA","0","0","0","0","0","0","0","64","64","0","15","0","no","03/06/19 08:33:36","A simple template for the mouse-tracking paradigm","yes","Experiment-TF.osexp","C:\Users\Kristen\Documents\opPreviewExperiment-master\procedure","no","mono","no","24","no","black","no","yes","1050","legacy","48","15","C:/Users/Kristen/Documents/opPreviewExperiment-master/procedure/subject-2.csv","legacy","Kafkaesque Koffka","3.2.6","add","0","l","NA","NA","l","l","741","NA","NA","7434","741","2","949","legacy","small","1024","2","48000","-16","experiment","5_3_add_FI.jpg","2","even","legacy","178451","NA","44910","NA","NA","2822","NA","2840","44169","178451","180382","10275","42112","2826","mousetracking operator preview effect","0","0","0","no","false","no","1680"
"neutral","undefined","0","undefined","undefined","white","no","legacy","legacy","legacy","0","relative","undefined","undefined","49","NA","0","0","0","0","0","0","0","65","65","0","15","0","no","03/06/19 08:33:36","A simple template for the mouse-tracking paradigm","yes","Experiment-TF.osexp","C:\Users\Kristen\Documents\opPreviewExperiment-master\procedure","no","mono","no","24","no","black","no","yes","1050","legacy","49","15","C:/Users/Kristen/Documents/opPreviewExperiment-master/procedure/subject-2.csv","legacy","Kafkaesque Koffka","3.2.6","mult","0","l","NA","NA","l","l","741","NA","NA","7434","741","2","2235","legacy","large","1024","2","48000","-16","experiment","8_4_mult_true.jpg","2","even","legacy","180412","NA","44910","NA","NA","2822","NA","2840","44169","180412","184623","10275","42112","2826","mousetracking operator preview effect","0","0","0","no","true","no","1680"
"neutral","undefined","1","undefined","undefined","white","no","legacy","legacy","legacy","0","relative","undefined","undefined","50","NA","0","0","0","0","0","0","0","66","66","0","15","0","no","03/06/19 08:33:36","A simple template for the mouse-tracking paradigm","yes","Experiment-TF.osexp","C:\Users\Kristen\Documents\opPreviewExperiment-master\procedure","no","mono","no","24","no","black","no","yes","1050","legacy","50","15","C:/Users/Kristen/Documents/opPreviewExperiment-master/procedure/subject-2.csv","legacy","Kafkaesque Koffka","3.2.6","mult","0","a","NA","NA","l","l","741","NA","NA","7434","741","2","989","legacy","large","1024","2","48000","-16","experiment","6_8_mult_true.jpg","2","even","legacy","184656","NA","44910","NA","NA","2822","NA","2840","44169","184656","186612","10275","42112","2826","mousetracking operator preview effect","0","0","0","no","true","no","1680"
"negative","undefined","1","undefined","undefined","white","no","legacy","legacy","legacy","0","relative","undefined","undefined","51","NA","0","0","0","0","0","0","0","67","67","0","15","0","no","03/06/19 08:33:36","A simple template for the mouse-tracking paradigm","yes","Experiment-TF.osexp","C:\Users\Kristen\Documents\opPreviewExperiment-master\procedure","no","mono","no","24","no","black","no","yes","1050","legacy","51","15","C:/Users/Kristen/Documents/opPreviewExperiment-master/procedure/subject-2.csv","legacy","Kafkaesque Koffka","3.2.6","add","0","l","NA","NA","l","l","741","NA","NA","7434","741","2","1052","legacy","large","1024","2","48000","-16","experiment","4_9_add_FI.jpg","2","even","legacy","186633","NA","44910","NA","NA","2822","NA","2840","44169","186633","188822","10275","42112","2826","mousetracking operator preview effect","0","0","0","no","false","no","1680"
"negative","undefined","1","undefined","undefined","white","no","legacy","legacy","legacy","0","relative","undefined","undefined","52","NA","0","0","0","0","0","0","0","68","68","0","15","0","no","03/06/19 08:33:36","A simple template for the mouse-tracking paradigm","yes","Experiment-TF.osexp","C:\Users\Kristen\Documents\opPreviewExperiment-master\procedure","no","mono","no","24","no","black","no","yes","1050","legacy","52","15","C:/Users/Kristen/Documents/opPreviewExperiment-master/procedure/subject-2.csv","legacy","Kafkaesque Koffka","3.2.6","add","0","l","NA","NA","l","l","741","NA","NA","7434","741","2","1064","legacy","small","1024","2","48000","-16","experiment","8_2_add_FI.jpg","2","even","legacy","188850","NA","44910","NA","NA","2822","NA","2840","44169","188850","191072","10275","42112","2826","mousetracking operator preview effect","0","0","0","no","false","no","1680"
"negative","undefined","1","undefined","undefined","white","no","legacy","legacy","legacy","0","relative","undefined","undefined","53","NA","0","0","0","0","0","0","0","69","69","0","15","0","no","03/06/19 08:33:36","A simple template for the mouse-tracking paradigm","yes","Experiment-TF.osexp","C:\Users\Kristen\Documents\opPreviewExperiment-master\procedure","no","mono","no","24","no","black","no","yes","1050","legacy","53","15","C:/Users/Kristen/Documents/opPreviewExperiment-master/procedure/subject-2.csv","legacy","Kafkaesque Koffka","3.2.6","add","0","l","NA","NA","l","l","741","NA","NA","7434","741","2","978","legacy","large","1024","2","48000","-16","experiment","9_7_add_FI.jpg","2","even","legacy","191093","NA","44910","NA","NA","2822","NA","2840","44169","191093","193227","10275","42112","2826","mousetracking operator preview effect","0","0","0","no","false","no","1680"
"neutral","undefined","1","undefined","undefined","white","no","legacy","legacy","legacy","0","relative","undefined","undefined","54","NA","0","0","0","0","0","0","0","70","70","0","15","0","no","03/06/19 08:33:36","A simple template for the mouse-tracking paradigm","yes","Experiment-TF.osexp","C:\Users\Kristen\Documents\opPreviewExperiment-master\procedure","no","mono","no","24","no","black","no","yes","1050","legacy","54","15","C:/Users/Kristen/Documents/opPreviewExperiment-master/procedure/subject-2.csv","legacy","Kafkaesque Koffka","3.2.6","add","0","a","NA","NA","l","l","741","NA","NA","7434","741","2","1215","legacy","large","1024","2","48000","-16","experiment","4_9_add_true.jpg","2","even","legacy","193253","NA","44910","NA","NA","2822","NA","2840","44169","193253","195437","10275","42112","2826","mousetracking operator preview effect","0","0","0","no","true","no","1680"
"neutral","undefined","1","undefined","undefined","white","no","legacy","legacy","legacy","0","relative","undefined","undefined","55","NA","0","0","0","0","0","0","0","71","71","0","15","0","no","03/06/19 08:33:36","A simple template for the mouse-tracking paradigm","yes","Experiment-TF.osexp","C:\Users\Kristen\Documents\opPreviewExperiment-master\procedure","no","mono","no","24","no","black","no","yes","1050","legacy","55","15","C:/Users/Kristen/Documents/opPreviewExperiment-master/procedure/subject-2.csv","legacy","Kafkaesque Koffka","3.2.6","add","0","a","NA","NA","l","l","741","NA","NA","7434","741","2","760","legacy","small","1024","2","48000","-16","experiment","5_3_add_true.jpg","2","even","legacy","195462","NA","44910","NA","NA","2822","NA","2840","44169","195462","197175","10275","42112","2826","mousetracking operator preview effect","0","0","0","no","true","no","1680"
"neutral","undefined","1","undefined","undefined","white","no","legacy","legacy","legacy","0","relative","undefined","undefined","56","NA","0","0","0","0","0","0","0","72","72","0","15","0","no","03/06/19 08:33:36","A simple template for the mouse-tracking paradigm","yes","Experiment-TF.osexp","C:\Users\Kristen\Documents\opPreviewExperiment-master\procedure","no","mono","no","24","no","black","no","yes","1050","legacy","56","15","C:/Users/Kristen/Documents/opPreviewExperiment-master/procedure/subject-2.csv","legacy","Kafkaesque Koffka","3.2.6","add","0","l","NA","NA","l","l","741","NA","NA","7434","741","2","763","legacy","large","1024","2","48000","-16","experiment","9_7_add_FI.jpg","2","even","legacy","197189","NA","44910","NA","NA","2822","NA","2840","44169","197189","198916","10275","42112","2826","mousetracking operator preview effect","0","0","0","no","false","no","1680"
"negative","undefined","1","undefined","undefined","white","no","legacy","legacy","legacy","0","relative","undefined","undefined","57","NA","0","0","0","0","0","0","0","73","73","0","15","0","no","03/06/19 08:33:36","A simple template for the mouse-tracking paradigm","yes","Experiment-TF.osexp","C:\Users\Kristen\Documents\opPreviewExperiment-master\procedure","no","mono","no","24","no","black","no","yes","1050","legacy","57","15","C:/Users/Kristen/Documents/opPreviewExperiment-master/procedure/subject-2.csv","legacy","Kafkaesque Koffka","3.2.6","mult","0","l","NA","NA","l","l","741","NA","NA","7434","741","2","1199","legacy","small","1024","2","48000","-16","experiment","5_3_mult_FNI.jpg","2","even","legacy","198942","NA","44910","NA","NA","2822","NA","2840","44169","198942","201285","10275","42112","2826","mousetracking operator preview effect","0","0","0","no","false","no","1680"
"neutral","undefined","1","undefined","undefined","white","no","legacy","legacy","legacy","0","relative","undefined","undefined","58","NA","0","0","0","0","0","0","0","74","74","0","15","0","no","03/06/19 08:33:36","A simple template for the mouse-tracking paradigm","yes","Experiment-TF.osexp","C:\Users\Kristen\Documents\opPreviewExperiment-master\procedure","no","mono","no","24","no","black","no","yes","1050","legacy","58","15","C:/Users/Kristen/Documents/opPreviewExperiment-master/procedure/subject-2.csv","legacy","Kafkaesque Koffka","3.2.6","add","0","l","NA","NA","l","l","741","NA","NA","7434","741","2","1074","legacy","large","1024","2","48000","-16","experiment","4_9_add_FNI.jpg","2","even","legacy","201310","NA","44910","NA","NA","2822","NA","2840","44169","201310","203361","10275","42112","2826","mousetracking operator preview effect","0","0","0","no","false","no","1680"
"neutral","undefined","1","undefined","undefined","white","no","legacy","legacy","legacy","0","relative","undefined","undefined","59","NA","0","0","0","0","0","0","0","75","75","0","15","0","no","03/06/19 08:33:36","A simple template for the mouse-tracking paradigm","yes","Experiment-TF.osexp","C:\Users\Kristen\Documents\opPreviewExperiment-master\procedure","no","mono","no","24","no","black","no","yes","1050","legacy","59","15","C:/Users/Kristen/Documents/opPreviewExperiment-master/procedure/subject-2.csv","legacy","Kafkaesque Koffka","3.2.6","mult","0","a","NA","NA","l","l","741","NA","NA","7434","741","2","1122","legacy","large","1024","2","48000","-16","experiment","4_9_mult_true.jpg","2","even","legacy","203381","NA","44910","NA","NA","2822","NA","2840","44169","203381","205470","10275","42112","2826","mousetracking operator preview effect","0","0","0","no","true","no","1680"
"neutral","undefined","1","undefined","undefined","white","no","legacy","legacy","legacy","0","relative","undefined","undefined","60","NA","0","0","0","0","0","0","0","76","76","0","15","0","no","03/06/19 08:33:36","A simple template for the mouse-tracking paradigm","yes","Experiment-TF.osexp","C:\Users\Kristen\Documents\opPreviewExperiment-master\procedure","no","mono","no","24","no","black","no","yes","1050","legacy","60","15","C:/Users/Kristen/Documents/opPreviewExperiment-master/procedure/subject-2.csv","legacy","Kafkaesque Koffka","3.2.6","add","0","a","NA","NA","l","l","741","NA","NA","7434","741","2","4363","legacy","large","1024","2","48000","-16","experiment","6_8_add_true.jpg","2","even","legacy","205490","NA","44910","NA","NA","2822","NA","2840","44169","205490","210818","10275","42112","2826","mousetracking operator preview effect","0","0","0","no","true","no","1680"
"neutral","undefined","1","undefined","undefined","white","no","legacy","legacy","legacy","0","relative","undefined","undefined","61","NA","0","0","0","0","0","0","0","77","77","0","15","0","no","03/06/19 08:33:36","A simple template for the mouse-tracking paradigm","yes","Experiment-TF.osexp","C:\Users\Kristen\Documents\opPreviewExperiment-master\procedure","no","mono","no","24","no","black","no","yes","1050","legacy","61","15","C:/Users/Kristen/Documents/opPreviewExperiment-master/procedure/subject-2.csv","legacy","Kafkaesque Koffka","3.2.6","add","0","a","NA","NA","l","l","741","NA","NA","7434","741","2","1465","legacy","large","1024","2","48000","-16","experiment","8_4_add_true.jpg","2","even","legacy","210839","NA","44910","NA","NA","2822","NA","2840","44169","210839","213263","10275","42112","2826","mousetracking operator preview effect","0","0","0","no","true","no","1680"
"negative","undefined","1","undefined","undefined","white","no","legacy","legacy","legacy","0","relative","undefined","undefined","62","NA","0","0","0","0","0","0","0","78","78","0","15","0","no","03/06/19 08:33:36","A simple template for the mouse-tracking paradigm","yes","Experiment-TF.osexp","C:\Users\Kristen\Documents\opPreviewExperiment-master\procedure","no","mono","no","24","no","black","no","yes","1050","legacy","62","15","C:/Users/Kristen/Documents/opPreviewExperiment-master/procedure/subject-2.csv","legacy","Kafkaesque Koffka","3.2.6","mult","0","l","NA","NA","l","l","741","NA","NA","7434","741","2","1022","legacy","large","1024","2","48000","-16","experiment","6_8_mult_FNI.jpg","2","even","legacy","213284","NA","44910","NA","NA","2822","NA","2840","44169","213284","215452","10275","42112","2826","mousetracking operator preview effect","0","0","0","no","false","no","1680"
"negative","undefined","0","undefined","undefined","white","no","legacy","legacy","legacy","0","relative","undefined","undefined","63","NA","0","0","0","0","0","0","0","79","79","0","15","0","no","03/06/19 08:33:36","A simple template for the mouse-tracking paradigm","yes","Experiment-TF.osexp","C:\Users\Kristen\Documents\opPreviewExperiment-master\procedure","no","mono","no","24","no","black","no","yes","1050","legacy","63","15","C:/Users/Kristen/Documents/opPreviewExperiment-master/procedure/subject-2.csv","legacy","Kafkaesque Koffka","3.2.6","add","0","a","NA","NA","l","l","741","NA","NA","7434","741","2","1811","legacy","small","1024","2","48000","-16","experiment","8_2_add_FNI.jpg","2","even","legacy","215477","NA","44910","NA","NA","2822","NA","2840","44169","215477","219422","10275","42112","2826","mousetracking operator preview effect","0","0","0","no","false","no","1680"
"neutral","undefined","1","undefined","undefined","white","no","legacy","legacy","legacy","0","relative","undefined","undefined","64","NA","0","0","0","0","0","0","0","80","80","0","15","0","no","03/06/19 08:33:36","A simple template for the mouse-tracking paradigm","yes","Experiment-TF.osexp","C:\Users\Kristen\Documents\opPreviewExperiment-master\procedure","no","mono","no","24","no","black","no","yes","1050","legacy","64","15","C:/Users/Kristen/Documents/opPreviewExperiment-master/procedure/subject-2.csv","legacy","Kafkaesque Koffka","3.2.6","add","0","a","NA","NA","l","l","741","NA","NA","7434","741","2","883","legacy","large","1024","2","48000","-16","experiment","8_4_add_true.jpg","2","even","legacy","219455","NA","44910","NA","NA","2822","NA","2840","44169","219456","221298","10275","42112","2826","mousetracking operator preview effect","0","0","0","no","true","no","1680"
"negative","undefined","1","undefined","undefined","white","no","legacy","legacy","legacy","0","relative","undefined","undefined","65","NA","0","0","0","0","0","0","0","81","81","0","15","0","no","03/06/19 08:33:36","A simple template for the mouse-tracking paradigm","yes","Experiment-TF.osexp","C:\Users\Kristen\Documents\opPreviewExperiment-master\procedure","no","mono","no","24","no","black","no","yes","1050","legacy","65","15","C:/Users/Kristen/Documents/opPreviewExperiment-master/procedure/subject-2.csv","legacy","Kafkaesque Koffka","3.2.6","add","0","l","NA","NA","l","l","741","NA","NA","7434","741","2","1066","legacy","small","1024","2","48000","-16","experiment","5_3_add_FI.jpg","2","even","legacy","221319","NA","44910","NA","NA","2822","NA","2840","44169","221319","223510","10275","42112","2826","mousetracking operator preview effect","0","0","0","no","false","no","1680"
"negative","undefined","1","undefined","undefined","white","no","legacy","legacy","legacy","0","relative","undefined","undefined","66","NA","0","0","0","0","0","0","0","82","82","0","15","0","no","03/06/19 08:33:36","A simple template for the mouse-tracking paradigm","yes","Experiment-TF.osexp","C:\Users\Kristen\Documents\opPreviewExperiment-master\procedure","no","mono","no","24","no","black","no","yes","1050","legacy","66","15","C:/Users/Kristen/Documents/opPreviewExperiment-master/procedure/subject-2.csv","legacy","Kafkaesque Koffka","3.2.6","add","0","a","NA","NA","l","l","741","NA","NA","7434","741","2","1110","legacy","large","1024","2","48000","-16","experiment","8_4_add_true.jpg","2","even","legacy","223531","NA","44910","NA","NA","2822","NA","2840","44169","223531","225750","10275","42112","2826","mousetracking operator preview effect","0","0","0","no","true","no","1680"
"negative","undefined","1","undefined","undefined","white","no","legacy","legacy","legacy","0","relative","undefined","undefined","67","NA","0","0","0","0","0","0","0","83","83","0","15","0","no","03/06/19 08:33:36","A simple template for the mouse-tracking paradigm","yes","Experiment-TF.osexp","C:\Users\Kristen\Documents\opPreviewExperiment-master\procedure","no","mono","no","24","no","black","no","yes","1050","legacy","67","15","C:/Users/Kristen/Documents/opPreviewExperiment-master/procedure/subject-2.csv","legacy","Kafkaesque Koffka","3.2.6","add","0","a","NA","NA","l","l","741","NA","NA","7434","741","2","1325","legacy","large","1024","2","48000","-16","experiment","9_7_add_true.jpg","2","even","legacy","225771","NA","44910","NA","NA","2822","NA","2840","44169","225771","228242","10275","42112","2826","mousetracking operator preview effect","0","0","0","no","true","no","1680"
"neutral","undefined","1","undefined","undefined","white","no","legacy","legacy","legacy","0","relative","undefined","undefined","68","NA","0","0","0","0","0","0","0","84","84","0","15","0","no","03/06/19 08:33:36","A simple template for the mouse-tracking paradigm","yes","Experiment-TF.osexp","C:\Users\Kristen\Documents\opPreviewExperiment-master\procedure","no","mono","no","24","no","black","no","yes","1050","legacy","68","15","C:/Users/Kristen/Documents/opPreviewExperiment-master/procedure/subject-2.csv","legacy","Kafkaesque Koffka","3.2.6","add","0","a","NA","NA","l","l","741","NA","NA","7434","741","2","707","legacy","large","1024","2","48000","-16","experiment","9_7_add_true.jpg","2","even","legacy","228263","NA","44910","NA","NA","2822","NA","2840","44169","228263","229938","10275","42112","2826","mousetracking operator preview effect","0","0","0","no","true","no","1680"
"negative","undefined","1","undefined","undefined","white","no","legacy","legacy","legacy","0","relative","undefined","undefined","69","NA","0","0","0","0","0","0","0","85","85","0","15","0","no","03/06/19 08:33:36","A simple template for the mouse-tracking paradigm","yes","Experiment-TF.osexp","C:\Users\Kristen\Documents\opPreviewExperiment-master\procedure","no","mono","no","24","no","black","no","yes","1050","legacy","69","15","C:/Users/Kristen/Documents/opPreviewExperiment-master/procedure/subject-2.csv","legacy","Kafkaesque Koffka","3.2.6","add","0","l","NA","NA","l","l","741","NA","NA","7434","741","2","1156","legacy","small","1024","2","48000","-16","experiment","3_6_add_FNI.jpg","2","even","legacy","229966","NA","44910","NA","NA","2822","NA","2840","44169","229966","232278","10275","42112","2826","mousetracking operator preview effect","0","0","0","no","false","no","1680"
"negative","undefined","1","undefined","undefined","white","no","legacy","legacy","legacy","0","relative","undefined","undefined","70","NA","0","0","0","0","0","0","0","86","86","0","15","0","no","03/06/19 08:33:36","A simple template for the mouse-tracking paradigm","yes","Experiment-TF.osexp","C:\Users\Kristen\Documents\opPreviewExperiment-master\procedure","no","mono","no","24","no","black","no","yes","1050","legacy","70","15","C:/Users/Kristen/Documents/opPreviewExperiment-master/procedure/subject-2.csv","legacy","Kafkaesque Koffka","3.2.6","add","0","l","NA","NA","l","l","741","NA","NA","7434","741","2","1191","legacy","large","1024","2","48000","-16","experiment","4_9_add_FNI.jpg","2","even","legacy","232298","NA","44910","NA","NA","2822","NA","2840","44169","232298","234624","10275","42112","2826","mousetracking operator preview effect","0","0","0","no","false","no","1680"
"negative","undefined","1","undefined","undefined","white","no","legacy","legacy","legacy","0","relative","undefined","undefined","71","NA","0","0","0","0","0","0","0","87","87","0","15","0","no","03/06/19 08:33:36","A simple template for the mouse-tracking paradigm","yes","Experiment-TF.osexp","C:\Users\Kristen\Documents\opPreviewExperiment-master\procedure","no","mono","no","24","no","black","no","yes","1050","legacy","71","15","C:/Users/Kristen/Documents/opPreviewExperiment-master/procedure/subject-2.csv","legacy","Kafkaesque Koffka","3.2.6","mult","0","a","NA","NA","l","l","741","NA","NA","7434","741","2","843","legacy","small","1024","2","48000","-16","experiment","5_3_mult_true.jpg","2","even","legacy","234645","NA","44910","NA","NA","2822","NA","2840","44169","234645","236587","10275","42112","2826","mousetracking operator preview effect","0","0","0","no","true","no","1680"
"neutral","undefined","1","undefined","undefined","white","no","legacy","legacy","legacy","0","relative","undefined","undefined","72","NA","0","0","0","0","0","0","0","88","88","0","15","0","no","03/06/19 08:33:36","A simple template for the mouse-tracking paradigm","yes","Experiment-TF.osexp","C:\Users\Kristen\Documents\opPreviewExperiment-master\procedure","no","mono","no","24","no","black","no","yes","1050","legacy","72","15","C:/Users/Kristen/Documents/opPreviewExperiment-master/procedure/subject-2.csv","legacy","Kafkaesque Koffka","3.2.6","mult","0","l","NA","NA","l","l","741","NA","NA","7434","741","2","1844","legacy","large","1024","2","48000","-16","experiment","9_7_mult_FI.jpg","2","even","legacy","236610","NA","44910","NA","NA","2822","NA","2840","44169","236610","239391","10275","42112","2826","mousetracking operator preview effect","0","0","0","no","false","no","1680"
"neutral","undefined","1","undefined","undefined","white","no","legacy","legacy","legacy","0","relative","undefined","undefined","73","NA","0","0","0","0","0","0","0","89","89","0","15","0","no","03/06/19 08:33:36","A simple template for the mouse-tracking paradigm","yes","Experiment-TF.osexp","C:\Users\Kristen\Documents\opPreviewExperiment-master\procedure","no","mono","no","24","no","black","no","yes","1050","legacy","73","15","C:/Users/Kristen/Documents/opPreviewExperiment-master/procedure/subject-2.csv","legacy","Kafkaesque Koffka","3.2.6","add","0","a","NA","NA","l","l","741","NA","NA","7434","741","2","999","legacy","small","1024","2","48000","-16","experiment","3_6_add_true.jpg","2","even","legacy","239417","NA","44910","NA","NA","2822","NA","2840","44169","239417","241368","10275","42112","2826","mousetracking operator preview effect","0","0","0","no","true","no","1680"
"negative","undefined","0","undefined","undefined","white","no","legacy","legacy","legacy","0","relative","undefined","undefined","74","NA","0","0","0","0","0","0","0","90","90","0","15","0","no","03/06/19 08:33:36","A simple template for the mouse-tracking paradigm","yes","Experiment-TF.osexp","C:\Users\Kristen\Documents\opPreviewExperiment-master\procedure","no","mono","no","24","no","black","no","yes","1050","legacy","74","15","C:/Users/Kristen/Documents/opPreviewExperiment-master/procedure/subject-2.csv","legacy","Kafkaesque Koffka","3.2.6","add","0","l","NA","NA","l","l","741","NA","NA","7434","741","2","1004","legacy","small","1024","2","48000","-16","experiment","5_3_add_true.jpg","2","even","legacy","241395","NA","44910","NA","NA","2822","NA","2840","44169","241395","244512","10275","42112","2826","mousetracking operator preview effect","0","0","0","no","true","no","1680"
"neutral","undefined","1","undefined","undefined","white","no","legacy","legacy","legacy","0","relative","undefined","undefined","75","NA","0","0","0","0","0","0","0","91","91","0","15","0","no","03/06/19 08:33:36","A simple template for the mouse-tracking paradigm","yes","Experiment-TF.osexp","C:\Users\Kristen\Documents\opPreviewExperiment-master\procedure","no","mono","no","24","no","black","no","yes","1050","legacy","75","15","C:/Users/Kristen/Documents/opPreviewExperiment-master/procedure/subject-2.csv","legacy","Kafkaesque Koffka","3.2.6","add","0","l","NA","NA","l","l","741","NA","NA","7434","741","2","1227","legacy","large","1024","2","48000","-16","experiment","6_8_add_FI.jpg","2","even","legacy","244544","NA","44910","NA","NA","2822","NA","2840","44169","244544","246710","10275","42112","2826","mousetracking operator preview effect","0","0","0","no","false","no","1680"
"neutral","undefined","1","undefined","undefined","white","no","legacy","legacy","legacy","0","relative","undefined","undefined","76","NA","0","0","0","0","0","0","0","92","92","0","15","0","no","03/06/19 08:33:36","A simple template for the mouse-tracking paradigm","yes","Experiment-TF.osexp","C:\Users\Kristen\Documents\opPreviewExperiment-master\procedure","no","mono","no","24","no","black","no","yes","1050","legacy","76","15","C:/Users/Kristen/Documents/opPreviewExperiment-master/procedure/subject-2.csv","legacy","Kafkaesque Koffka","3.2.6","add","0","l","NA","NA","l","l","741","NA","NA","7434","741","2","1092","legacy","small","1024","2","48000","-16","experiment","5_3_add_FNI.jpg","2","even","legacy","246724","NA","44910","NA","NA","2822","NA","2840","44169","246724","248784","10275","42112","2826","mousetracking operator preview effect","0","0","0","no","false","no","1680"
"neutral","undefined","0","undefined","undefined","white","no","legacy","legacy","legacy","0","relative","undefined","undefined","77","NA","0","0","0","0","0","0","0","93","93","0","15","0","no","03/06/19 08:33:36","A simple template for the mouse-tracking paradigm","yes","Experiment-TF.osexp","C:\Users\Kristen\Documents\opPreviewExperiment-master\procedure","no","mono","no","24","no","black","no","yes","1050","legacy","77","15","C:/Users/Kristen/Documents/opPreviewExperiment-master/procedure/subject-2.csv","legacy","Kafkaesque Koffka","3.2.6","mult","0","a","NA","NA","l","l","741","NA","NA","7434","741","2","1822","legacy","large","1024","2","48000","-16","experiment","9_7_mult_FNI.jpg","2","even","legacy","248808","NA","44910","NA","NA","2822","NA","2840","44169","248808","252598","10275","42112","2826","mousetracking operator preview effect","0","0","0","no","false","no","1680"
"negative","undefined","1","undefined","undefined","white","no","legacy","legacy","legacy","0","relative","undefined","undefined","78","NA","0","0","0","0","0","0","0","94","94","0","15","0","no","03/06/19 08:33:36","A simple template for the mouse-tracking paradigm","yes","Experiment-TF.osexp","C:\Users\Kristen\Documents\opPreviewExperiment-master\procedure","no","mono","no","24","no","black","no","yes","1050","legacy","78","15","C:/Users/Kristen/Documents/opPreviewExperiment-master/procedure/subject-2.csv","legacy","Kafkaesque Koffka","3.2.6","mult","0","l","NA","NA","l","l","741","NA","NA","7434","741","2","897","legacy","small","1024","2","48000","-16","experiment","8_2_mult_FI.jpg","2","even","legacy","252630","NA","44910","NA","NA","2822","NA","2840","44169","252631","254655","10275","42112","2826","mousetracking operator preview effect","0","0","0","no","false","no","1680"
"neutral","undefined","1","undefined","undefined","white","no","legacy","legacy","legacy","0","relative","undefined","undefined","79","NA","0","0","0","0","0","0","0","95","95","0","15","0","no","03/06/19 08:33:36","A simple template for the mouse-tracking paradigm","yes","Experiment-TF.osexp","C:\Users\Kristen\Documents\opPreviewExperiment-master\procedure","no","mono","no","24","no","black","no","yes","1050","legacy","79","15","C:/Users/Kristen/Documents/opPreviewExperiment-master/procedure/subject-2.csv","legacy","Kafkaesque Koffka","3.2.6","mult","0","l","NA","NA","l","l","741","NA","NA","7434","741","2","1403","legacy","small","1024","2","48000","-16","experiment","5_3_mult_FNI.jpg","2","even","legacy","254677","NA","44910","NA","NA","2822","NA","2840","44169","254677","257041","10275","42112","2826","mousetracking operator preview effect","0","0","0","no","false","no","1680"
"negative","undefined","1","undefined","undefined","white","no","legacy","legacy","legacy","0","relative","undefined","undefined","80","NA","0","0","0","0","0","0","0","96","96","0","15","0","no","03/06/19 08:33:36","A simple template for the mouse-tracking paradigm","yes","Experiment-TF.osexp","C:\Users\Kristen\Documents\opPreviewExperiment-master\procedure","no","mono","no","24","no","black","no","yes","1050","legacy","80","15","C:/Users/Kristen/Documents/opPreviewExperiment-master/procedure/subject-2.csv","legacy","Kafkaesque Koffka","3.2.6","mult","0","l","NA","NA","l","l","741","NA","NA","7434","741","2","1253","legacy","large","1024","2","48000","-16","experiment","8_4_mult_FI.jpg","2","even","legacy","257074","NA","44910","NA","NA","2822","NA","2840","44169","257074","259456","10275","42112","2826","mousetracking operator preview effect","0","0","0","no","false","no","1680"
"negative","undefined","1","undefined","undefined","white","no","legacy","legacy","legacy","0","relative","undefined","undefined","81","NA","0","0","0","0","0","0","0","97","97","0","15","0","no","03/06/19 08:33:36","A simple template for the mouse-tracking paradigm","yes","Experiment-TF.osexp","C:\Users\Kristen\Documents\opPreviewExperiment-master\procedure","no","mono","no","24","no","black","no","yes","1050","legacy","81","15","C:/Users/Kristen/Documents/opPreviewExperiment-master/procedure/subject-2.csv","legacy","Kafkaesque Koffka","3.2.6","add","0","l","NA","NA","l","l","741","NA","NA","7434","741","2","1044","legacy","small","1024","2","48000","-16","experiment","2_7_add_FNI.jpg","2","even","legacy","259478","NA","44910","NA","NA","2822","NA","2840","44169","259478","261653","10275","42112","2826","mousetracking operator preview effect","0","0","0","no","false","no","1680"
"negative","undefined","1","undefined","undefined","white","no","legacy","legacy","legacy","0","relative","undefined","undefined","82","NA","0","0","0","0","0","0","0","98","98","0","15","0","no","03/06/19 08:33:36","A simple template for the mouse-tracking paradigm","yes","Experiment-TF.osexp","C:\Users\Kristen\Documents\opPreviewExperiment-master\procedure","no","mono","no","24","no","black","no","yes","1050","legacy","82","15","C:/Users/Kristen/Documents/opPreviewExperiment-master/procedure/subject-2.csv","legacy","Kafkaesque Koffka","3.2.6","add","0","l","NA","NA","l","l","741","NA","NA","7434","741","2","943","legacy","small","1024","2","48000","-16","experiment","5_3_add_FNI.jpg","2","even","legacy","261681","NA","44910","NA","NA","2822","NA","2840","44169","261681","263759","10275","42112","2826","mousetracking operator preview effect","0","0","0","no","false","no","1680"
"neutral","undefined","1","undefined","undefined","white","no","legacy","legacy","legacy","0","relative","undefined","undefined","83","NA","0","0","0","0","0","0","0","99","99","0","15","0","no","03/06/19 08:33:36","A simple template for the mouse-tracking paradigm","yes","Experiment-TF.osexp","C:\Users\Kristen\Documents\opPreviewExperiment-master\procedure","no","mono","no","24","no","black","no","yes","1050","legacy","83","15","C:/Users/Kristen/Documents/opPreviewExperiment-master/procedure/subject-2.csv","legacy","Kafkaesque Koffka","3.2.6","mult","0","l","NA","NA","l","l","741","NA","NA","7434","741","2","947","legacy","small","1024","2","48000","-16","experiment","2_7_mult_FI.jpg","2","even","legacy","263781","NA","44910","NA","NA","2822","NA","2840","44169","263781","265702","10275","42112","2826","mousetracking operator preview effect","0","0","0","no","false","no","1680"
"neutral","undefined","0","undefined","undefined","white","no","legacy","legacy","legacy","0","relative","undefined","undefined","84","NA","0","0","0","0","0","0","0","100","100","0","15","0","no","03/06/19 08:33:36","A simple template for the mouse-tracking paradigm","yes","Experiment-TF.osexp","C:\Users\Kristen\Documents\opPreviewExperiment-master\procedure","no","mono","no","24","no","black","no","yes","1050","legacy","84","15","C:/Users/Kristen/Documents/opPreviewExperiment-master/procedure/subject-2.csv","legacy","Kafkaesque Koffka","3.2.6","mult","0","l","NA","NA","l","l","741","NA","NA","7434","741","2","1191","legacy","small","1024","2","48000","-16","experiment","3_6_mult_true.jpg","2","even","legacy","265724","NA","44910","NA","NA","2822","NA","2840","44169","265724","268903","10275","42112","2826","mousetracking operator preview effect","0","0","0","no","true","no","1680"
"negative","undefined","1","undefined","undefined","white","no","legacy","legacy","legacy","0","relative","undefined","undefined","85","NA","0","0","0","0","0","0","0","101","101","0","15","0","no","03/06/19 08:33:36","A simple template for the mouse-tracking paradigm","yes","Experiment-TF.osexp","C:\Users\Kristen\Documents\opPreviewExperiment-master\procedure","no","mono","no","24","no","black","no","yes","1050","legacy","85","15","C:/Users/Kristen/Documents/opPreviewExperiment-master/procedure/subject-2.csv","legacy","Kafkaesque Koffka","3.2.6","add","0","l","NA","NA","l","l","741","NA","NA","7434","741","2","1750","legacy","large","1024","2","48000","-16","experiment","8_4_add_FNI.jpg","2","even","legacy","268939","NA","44910","NA","NA","2822","NA","2840","44169","268940","271834","10275","42112","2826","mousetracking operator preview effect","0","0","0","no","false","no","1680"
"neutral","undefined","1","undefined","undefined","white","no","legacy","legacy","legacy","0","relative","undefined","undefined","86","NA","0","0","0","0","0","0","0","102","102","0","15","0","no","03/06/19 08:33:36","A simple template for the mouse-tracking paradigm","yes","Experiment-TF.osexp","C:\Users\Kristen\Documents\opPreviewExperiment-master\procedure","no","mono","no","24","no","black","no","yes","1050","legacy","86","15","C:/Users/Kristen/Documents/opPreviewExperiment-master/procedure/subject-2.csv","legacy","Kafkaesque Koffka","3.2.6","mult","0","a","NA","NA","l","l","741","NA","NA","7434","741","2","1133","legacy","large","1024","2","48000","-16","experiment","9_7_mult_true.jpg","2","even","legacy","271854","NA","44910","NA","NA","2822","NA","2840","44169","271854","273955","10275","42112","2826","mousetracking operator preview effect","0","0","0","no","true","no","1680"
"negative","undefined","1","undefined","undefined","white","no","legacy","legacy","legacy","0","relative","undefined","undefined","87","NA","0","0","0","0","0","0","0","103","103","0","15","0","no","03/06/19 08:33:36","A simple template for the mouse-tracking paradigm","yes","Experiment-TF.osexp","C:\Users\Kristen\Documents\opPreviewExperiment-master\procedure","no","mono","no","24","no","black","no","yes","1050","legacy","87","15","C:/Users/Kristen/Documents/opPreviewExperiment-master/procedure/subject-2.csv","legacy","Kafkaesque Koffka","3.2.6","mult","0","l","NA","NA","l","l","741","NA","NA","7434","741","2","1182","legacy","small","1024","2","48000","-16","experiment","3_6_mult_FNI.jpg","2","even","legacy","273979","NA","44910","NA","NA","2822","NA","2840","44169","273979","276290","10275","42112","2826","mousetracking operator preview effect","0","0","0","no","false","no","1680"
"neutral","undefined","1","undefined","undefined","white","no","legacy","legacy","legacy","0","relative","undefined","undefined","88","NA","0","0","0","0","0","0","0","104","104","0","15","0","no","03/06/19 08:33:36","A simple template for the mouse-tracking paradigm","yes","Experiment-TF.osexp","C:\Users\Kristen\Documents\opPreviewExperiment-master\procedure","no","mono","no","24","no","black","no","yes","1050","legacy","88","15","C:/Users/Kristen/Documents/opPreviewExperiment-master/procedure/subject-2.csv","legacy","Kafkaesque Koffka","3.2.6","mult","0","a","NA","NA","l","l","741","NA","NA","7434","741","2","918","legacy","small","1024","2","48000","-16","experiment","2_7_mult_true.jpg","2","even","legacy","276303","NA","44910","NA","NA","2822","NA","2840","44169","276303","278177","10275","42112","2826","mousetracking operator preview effect","0","0","0","no","true","no","1680"
"negative","undefined","1","undefined","undefined","white","no","legacy","legacy","legacy","0","relative","undefined","undefined","89","NA","0","0","0","0","0","0","0","105","105","0","15","0","no","03/06/19 08:33:36","A simple template for the mouse-tracking paradigm","yes","Experiment-TF.osexp","C:\Users\Kristen\Documents\opPreviewExperiment-master\procedure","no","mono","no","24","no","black","no","yes","1050","legacy","89","15","C:/Users/Kristen/Documents/opPreviewExperiment-master/procedure/subject-2.csv","legacy","Kafkaesque Koffka","3.2.6","mult","0","l","NA","NA","l","l","741","NA","NA","7434","741","2","816","legacy","small","1024","2","48000","-16","experiment","5_3_mult_FI.jpg","2","even","legacy","278204","NA","44910","NA","NA","2822","NA","2840","44169","278204","280164","10275","42112","2826","mousetracking operator preview effect","0","0","0","no","false","no","1680"
"neutral","undefined","1","undefined","undefined","white","no","legacy","legacy","legacy","0","relative","undefined","undefined","90","NA","0","0","0","0","0","0","0","106","106","0","15","0","no","03/06/19 08:33:36","A simple template for the mouse-tracking paradigm","yes","Experiment-TF.osexp","C:\Users\Kristen\Documents\opPreviewExperiment-master\procedure","no","mono","no","24","no","black","no","yes","1050","legacy","90","15","C:/Users/Kristen/Documents/opPreviewExperiment-master/procedure/subject-2.csv","legacy","Kafkaesque Koffka","3.2.6","add","0","a","NA","NA","l","l","741","NA","NA","7434","741","2","931","legacy","small","1024","2","48000","-16","experiment","2_7_add_true.jpg","2","even","legacy","280185","NA","44910","NA","NA","2822","NA","2840","44169","280186","282082","10275","42112","2826","mousetracking operator preview effect","0","0","0","no","true","no","1680"
"neutral","undefined","1","undefined","undefined","white","no","legacy","legacy","legacy","0","relative","undefined","undefined","91","NA","0","0","0","0","0","0","0","107","107","0","15","0","no","03/06/19 08:33:36","A simple template for the mouse-tracking paradigm","yes","Experiment-TF.osexp","C:\Users\Kristen\Documents\opPreviewExperiment-master\procedure","no","mono","no","24","no","black","no","yes","1050","legacy","91","15","C:/Users/Kristen/Documents/opPreviewExperiment-master/procedure/subject-2.csv","legacy","Kafkaesque Koffka","3.2.6","mult","0","l","NA","NA","l","l","741","NA","NA","7434","741","2","1253","legacy","small","1024","2","48000","-16","experiment","8_2_mult_FNI.jpg","2","even","legacy","282108","NA","44910","NA","NA","2822","NA","2840","44169","282108","284337","10275","42112","2826","mousetracking operator preview effect","0","0","0","no","false","no","1680"
"negative","undefined","1","undefined","undefined","white","no","legacy","legacy","legacy","0","relative","undefined","undefined","92","NA","0","0","0","0","0","0","0","108","108","0","15","0","no","03/06/19 08:33:36","A simple template for the mouse-tracking paradigm","yes","Experiment-TF.osexp","C:\Users\Kristen\Documents\opPreviewExperiment-master\procedure","no","mono","no","24","no","black","no","yes","1050","legacy","92","15","C:/Users/Kristen/Documents/opPreviewExperiment-master/procedure/subject-2.csv","legacy","Kafkaesque Koffka","3.2.6","mult","0","l","NA","NA","l","l","741","NA","NA","7434","741","2","1009","legacy","small","1024","2","48000","-16","experiment","2_7_mult_FI.jpg","2","even","legacy","284357","NA","44910","NA","NA","2822","NA","2840","44169","284357","286506","10275","42112","2826","mousetracking operator preview effect","0","0","0","no","false","no","1680"
"negative","undefined","1","undefined","undefined","white","no","legacy","legacy","legacy","0","relative","undefined","undefined","93","NA","0","0","0","0","0","0","0","109","109","0","15","0","no","03/06/19 08:33:36","A simple template for the mouse-tracking paradigm","yes","Experiment-TF.osexp","C:\Users\Kristen\Documents\opPreviewExperiment-master\procedure","no","mono","no","24","no","black","no","yes","1050","legacy","93","15","C:/Users/Kristen/Documents/opPreviewExperiment-master/procedure/subject-2.csv","legacy","Kafkaesque Koffka","3.2.6","mult","0","a","NA","NA","l","l","741","NA","NA","7434","741","2","834","legacy","small","1024","2","48000","-16","experiment","2_7_mult_true.jpg","2","even","legacy","286534","NA","44910","NA","NA","2822","NA","2840","44169","286534","288501","10275","42112","2826","mousetracking operator preview effect","0","0","0","no","true","no","1680"
