"SOAcondition","acc","accuracy","average_response_time","avg_rt","background","bidi","canvas_backend","clock_backend","color_backend","compensation","coordinates","correct","correct_instruction1","count_block1_sequence","count_block2_sequence","count_block_1","count_block_2","count_breakScreen","count_experiment","count_finish","count_instruction1","count_instruction2","count_keyboard_script","count_logger","count_practiceBlock","count_practice_sequence","count_setup_script","custom_cursor","datetime","description","disable_garbage_collection","experiment_file","experiment_path","font_bold","font_family","font_italic","font_size","font_underline","foreground","form_clicks","fullscreen","height","keyboard_backend","live_row","live_row_practiceBlock","logfile","mouse_backend","opensesame_codename","opensesame_version","operation","repeat_cycle","response","response_breakScreen","response_finish","response_instruction1","response_instruction2","response_time","response_time_breakScreen","response_time_finish","response_time_instruction1","response_time_instruction2","round_decimals","rt","sampler_backend","size","sound_buf_size","sound_channels","sound_freq","sound_sample_size","start","stimulus","subject_nr","subject_parity","synth_backend","time_block1_sequence","time_block2_sequence","time_block_1","time_block_2","time_breakScreen","time_experiment","time_finish","time_instruction1","time_instruction2","time_keyboard_script","time_logger","time_practiceBlock","time_practice_sequence","time_setup_script","title","total_correct","total_response_time","total_responses","transparent_variables","truth","uniform_coordinates","width"
"negative","undefined","1","undefined","undefined","white","no","legacy","legacy","legacy","0","relative","undefined","undefined","NA","NA","0","0","0","0","0","0","0","0","0","0","0","0","no","04/08/19 09:07:11","A simple template for the mouse-tracking paradigm","yes","Experiment-TF.osexp","C:\Users\Kristen\Documents\opPreviewExperiment-master\procedure","no","mono","no","24","no","black","no","yes","1050","legacy","0","0","C:/Users/Kristen/Documents/opPreviewExperiment-master/procedure/subject-13.csv","legacy","Kafkaesque Koffka","3.2.6","mult","0","l","NA","NA","a","NA","20983","NA","NA","20983","NA","2","2880","legacy","NA","1024","2","48000","-16","experiment","1_4_mult_F.jpg","13","odd","legacy","NA","NA","NA","NA","NA","2538","NA","2553","NA","23538","27664","23536","23538","2540","mousetracking operator preview effect","0","0","0","no","false","no","1680"
"negative","undefined","1","undefined","undefined","white","no","legacy","legacy","legacy","0","relative","undefined","undefined","NA","NA","0","0","0","0","0","0","0","1","1","0","1","0","no","04/08/19 09:07:11","A simple template for the mouse-tracking paradigm","yes","Experiment-TF.osexp","C:\Users\Kristen\Documents\opPreviewExperiment-master\procedure","no","mono","no","24","no","black","no","yes","1050","legacy","1","1","C:/Users/Kristen/Documents/opPreviewExperiment-master/procedure/subject-13.csv","legacy","Kafkaesque Koffka","3.2.6","add","0","l","NA","NA","a","NA","20983","NA","NA","20983","NA","2","3777","legacy","NA","1024","2","48000","-16","experiment","1_4_add_F.jpg","13","odd","legacy","NA","NA","NA","NA","NA","2538","NA","2553","NA","27691","32639","23536","27691","2540","mousetracking operator preview effect","0","0","0","no","false","no","1680"
"negative","undefined","1","undefined","undefined","white","no","legacy","legacy","legacy","0","relative","undefined","undefined","NA","NA","0","0","0","0","0","0","0","2","2","0","2","0","no","04/08/19 09:07:11","A simple template for the mouse-tracking paradigm","yes","Experiment-TF.osexp","C:\Users\Kristen\Documents\opPreviewExperiment-master\procedure","no","mono","no","24","no","black","no","yes","1050","legacy","2","2","C:/Users/Kristen/Documents/opPreviewExperiment-master/procedure/subject-13.csv","legacy","Kafkaesque Koffka","3.2.6","add","0","a","NA","NA","a","NA","20983","NA","NA","20983","NA","2","3742","legacy","NA","1024","2","48000","-16","experiment","0_3_add_T.jpg","13","odd","legacy","NA","NA","NA","NA","NA","2538","NA","2553","NA","32659","37558","23536","32659","2540","mousetracking operator preview effect","0","0","0","no","true","no","1680"
"neutral","undefined","1","undefined","undefined","white","no","legacy","legacy","legacy","0","relative","undefined","undefined","NA","NA","0","0","0","0","0","0","0","3","3","0","3","0","no","04/08/19 09:07:11","A simple template for the mouse-tracking paradigm","yes","Experiment-TF.osexp","C:\Users\Kristen\Documents\opPreviewExperiment-master\procedure","no","mono","no","24","no","black","no","yes","1050","legacy","3","3","C:/Users/Kristen/Documents/opPreviewExperiment-master/procedure/subject-13.csv","legacy","Kafkaesque Koffka","3.2.6","mult","0","l","NA","NA","a","NA","20983","NA","NA","20983","NA","2","1974","legacy","NA","1024","2","48000","-16","experiment","0_3_mult_F.jpg","13","odd","legacy","NA","NA","NA","NA","NA","2538","NA","2553","NA","37583","40540","23536","37583","2540","mousetracking operator preview effect","0","0","0","no","false","no","1680"
"neutral","undefined","1","undefined","undefined","white","no","legacy","legacy","legacy","0","relative","undefined","undefined","NA","NA","0","0","0","0","0","0","0","4","4","0","4","0","no","04/08/19 09:07:11","A simple template for the mouse-tracking paradigm","yes","Experiment-TF.osexp","C:\Users\Kristen\Documents\opPreviewExperiment-master\procedure","no","mono","no","24","no","black","no","yes","1050","legacy","4","4","C:/Users/Kristen/Documents/opPreviewExperiment-master/procedure/subject-13.csv","legacy","Kafkaesque Koffka","3.2.6","mult","0","a","NA","NA","a","NA","20983","NA","NA","20983","NA","2","2469","legacy","NA","1024","2","48000","-16","experiment","1_4_mult_T.jpg","13","odd","legacy","NA","NA","NA","NA","NA","2538","NA","2553","NA","40572","44032","23536","40572","2540","mousetracking operator preview effect","0","0","0","no","true","no","1680"
"negative","undefined","1","undefined","undefined","white","no","legacy","legacy","legacy","0","relative","undefined","undefined","NA","NA","0","0","0","0","0","0","0","5","5","0","5","0","no","04/08/19 09:07:11","A simple template for the mouse-tracking paradigm","yes","Experiment-TF.osexp","C:\Users\Kristen\Documents\opPreviewExperiment-master\procedure","no","mono","no","24","no","black","no","yes","1050","legacy","5","5","C:/Users/Kristen/Documents/opPreviewExperiment-master/procedure/subject-13.csv","legacy","Kafkaesque Koffka","3.2.6","mult","0","a","NA","NA","a","NA","20983","NA","NA","20983","NA","2","2597","legacy","NA","1024","2","48000","-16","experiment","1_4_mult_T.jpg","13","odd","legacy","NA","NA","NA","NA","NA","2538","NA","2553","NA","44053","47796","23536","44053","2540","mousetracking operator preview effect","0","0","0","no","true","no","1680"
"neutral","undefined","1","undefined","undefined","white","no","legacy","legacy","legacy","0","relative","undefined","undefined","NA","NA","0","0","0","0","0","0","0","6","6","0","6","0","no","04/08/19 09:07:11","A simple template for the mouse-tracking paradigm","yes","Experiment-TF.osexp","C:\Users\Kristen\Documents\opPreviewExperiment-master\procedure","no","mono","no","24","no","black","no","yes","1050","legacy","6","6","C:/Users/Kristen/Documents/opPreviewExperiment-master/procedure/subject-13.csv","legacy","Kafkaesque Koffka","3.2.6","add","0","a","NA","NA","a","NA","20983","NA","NA","20983","NA","2","2188","legacy","NA","1024","2","48000","-16","experiment","1_4_add_T.jpg","13","odd","legacy","NA","NA","NA","NA","NA","2538","NA","2553","NA","47816","51009","23536","47816","2540","mousetracking operator preview effect","0","0","0","no","true","no","1680"
"neutral","undefined","1","undefined","undefined","white","no","legacy","legacy","legacy","0","relative","undefined","undefined","NA","NA","0","0","0","0","0","0","0","7","7","0","7","0","no","04/08/19 09:07:11","A simple template for the mouse-tracking paradigm","yes","Experiment-TF.osexp","C:\Users\Kristen\Documents\opPreviewExperiment-master\procedure","no","mono","no","24","no","black","no","yes","1050","legacy","7","7","C:/Users/Kristen/Documents/opPreviewExperiment-master/procedure/subject-13.csv","legacy","Kafkaesque Koffka","3.2.6","add","0","a","NA","NA","a","NA","20983","NA","NA","20983","NA","2","3462","legacy","NA","1024","2","48000","-16","experiment","0_3_add_T.jpg","13","odd","legacy","NA","NA","NA","NA","NA","2538","NA","2553","NA","51029","55465","23536","51029","2540","mousetracking operator preview effect","0","0","0","no","true","no","1680"
"neutral","undefined","1","undefined","undefined","white","no","legacy","legacy","legacy","0","relative","undefined","undefined","NA","NA","0","0","0","0","0","0","0","8","8","0","8","0","no","04/08/19 09:07:11","A simple template for the mouse-tracking paradigm","yes","Experiment-TF.osexp","C:\Users\Kristen\Documents\opPreviewExperiment-master\procedure","no","mono","no","24","no","black","no","yes","1050","legacy","8","8","C:/Users/Kristen/Documents/opPreviewExperiment-master/procedure/subject-13.csv","legacy","Kafkaesque Koffka","3.2.6","mult","0","a","NA","NA","a","NA","20983","NA","NA","20983","NA","2","2002","legacy","NA","1024","2","48000","-16","experiment","0_3_mult_T.jpg","13","odd","legacy","NA","NA","NA","NA","NA","2538","NA","2553","NA","55495","58495","23536","55495","2540","mousetracking operator preview effect","0","0","0","no","true","no","1680"
"neutral","undefined","1","undefined","undefined","white","no","legacy","legacy","legacy","0","relative","undefined","undefined","NA","NA","0","0","0","0","0","0","0","9","9","0","9","0","no","04/08/19 09:07:11","A simple template for the mouse-tracking paradigm","yes","Experiment-TF.osexp","C:\Users\Kristen\Documents\opPreviewExperiment-master\procedure","no","mono","no","24","no","black","no","yes","1050","legacy","9","9","C:/Users/Kristen/Documents/opPreviewExperiment-master/procedure/subject-13.csv","legacy","Kafkaesque Koffka","3.2.6","add","0","l","NA","NA","a","NA","20983","NA","NA","20983","NA","2","1860","legacy","NA","1024","2","48000","-16","experiment","0_3_add_F.jpg","13","odd","legacy","NA","NA","NA","NA","NA","2538","NA","2553","NA","58516","61342","23536","58516","2540","mousetracking operator preview effect","0","0","0","no","false","no","1680"
"negative","undefined","1","undefined","undefined","white","no","legacy","legacy","legacy","0","relative","undefined","undefined","NA","NA","0","0","0","0","0","0","0","10","10","0","10","0","no","04/08/19 09:07:11","A simple template for the mouse-tracking paradigm","yes","Experiment-TF.osexp","C:\Users\Kristen\Documents\opPreviewExperiment-master\procedure","no","mono","no","24","no","black","no","yes","1050","legacy","10","10","C:/Users/Kristen/Documents/opPreviewExperiment-master/procedure/subject-13.csv","legacy","Kafkaesque Koffka","3.2.6","add","0","a","NA","NA","a","NA","20983","NA","NA","20983","NA","2","1804","legacy","NA","1024","2","48000","-16","experiment","1_4_add_T.jpg","13","odd","legacy","NA","NA","NA","NA","NA","2538","NA","2553","NA","61362","64310","23536","61362","2540","mousetracking operator preview effect","0","0","0","no","true","no","1680"
"neutral","undefined","1","undefined","undefined","white","no","legacy","legacy","legacy","0","relative","undefined","undefined","NA","NA","0","0","0","0","0","0","0","11","11","0","11","0","no","04/08/19 09:07:11","A simple template for the mouse-tracking paradigm","yes","Experiment-TF.osexp","C:\Users\Kristen\Documents\opPreviewExperiment-master\procedure","no","mono","no","24","no","black","no","yes","1050","legacy","11","11","C:/Users/Kristen/Documents/opPreviewExperiment-master/procedure/subject-13.csv","legacy","Kafkaesque Koffka","3.2.6","add","0","l","NA","NA","a","NA","20983","NA","NA","20983","NA","2","1896","legacy","NA","1024","2","48000","-16","experiment","1_4_add_F.jpg","13","odd","legacy","NA","NA","NA","NA","NA","2538","NA","2553","NA","64339","67206","23536","64339","2540","mousetracking operator preview effect","0","0","0","no","false","no","1680"
"negative","undefined","1","undefined","undefined","white","no","legacy","legacy","legacy","0","relative","undefined","undefined","NA","NA","0","0","0","0","0","0","0","12","12","0","12","0","no","04/08/19 09:07:11","A simple template for the mouse-tracking paradigm","yes","Experiment-TF.osexp","C:\Users\Kristen\Documents\opPreviewExperiment-master\procedure","no","mono","no","24","no","black","no","yes","1050","legacy","12","12","C:/Users/Kristen/Documents/opPreviewExperiment-master/procedure/subject-13.csv","legacy","Kafkaesque Koffka","3.2.6","add","0","l","NA","NA","a","NA","20983","NA","NA","20983","NA","2","2036","legacy","NA","1024","2","48000","-16","experiment","0_3_add_F.jpg","13","odd","legacy","NA","NA","NA","NA","NA","2538","NA","2553","NA","67229","70405","23536","67229","2540","mousetracking operator preview effect","0","0","0","no","false","no","1680"
"negative","undefined","1","undefined","undefined","white","no","legacy","legacy","legacy","0","relative","undefined","undefined","NA","NA","0","0","0","0","0","0","0","13","13","0","13","0","no","04/08/19 09:07:11","A simple template for the mouse-tracking paradigm","yes","Experiment-TF.osexp","C:\Users\Kristen\Documents\opPreviewExperiment-master\procedure","no","mono","no","24","no","black","no","yes","1050","legacy","13","13","C:/Users/Kristen/Documents/opPreviewExperiment-master/procedure/subject-13.csv","legacy","Kafkaesque Koffka","3.2.6","mult","0","a","NA","NA","a","NA","20983","NA","NA","20983","NA","2","1513","legacy","NA","1024","2","48000","-16","experiment","0_3_mult_T.jpg","13","odd","legacy","NA","NA","NA","NA","NA","2538","NA","2553","NA","70426","73088","23536","70426","2540","mousetracking operator preview effect","0","0","0","no","true","no","1680"
"negative","undefined","1","undefined","undefined","white","no","legacy","legacy","legacy","0","relative","undefined","undefined","NA","NA","0","0","0","0","0","0","0","14","14","0","14","0","no","04/08/19 09:07:11","A simple template for the mouse-tracking paradigm","yes","Experiment-TF.osexp","C:\Users\Kristen\Documents\opPreviewExperiment-master\procedure","no","mono","no","24","no","black","no","yes","1050","legacy","14","14","C:/Users/Kristen/Documents/opPreviewExperiment-master/procedure/subject-13.csv","legacy","Kafkaesque Koffka","3.2.6","mult","0","l","NA","NA","a","NA","20983","NA","NA","20983","NA","2","1778","legacy","NA","1024","2","48000","-16","experiment","0_3_mult_F.jpg","13","odd","legacy","NA","NA","NA","NA","NA","2538","NA","2553","NA","73110","76015","23536","73110","2540","mousetracking operator preview effect","0","0","0","no","false","no","1680"
"neutral","undefined","1","undefined","undefined","white","no","legacy","legacy","legacy","0","relative","undefined","undefined","NA","NA","0","0","0","0","0","0","0","15","15","0","15","0","no","04/08/19 09:07:11","A simple template for the mouse-tracking paradigm","yes","Experiment-TF.osexp","C:\Users\Kristen\Documents\opPreviewExperiment-master\procedure","no","mono","no","24","no","black","no","yes","1050","legacy","15","15","C:/Users/Kristen/Documents/opPreviewExperiment-master/procedure/subject-13.csv","legacy","Kafkaesque Koffka","3.2.6","mult","0","l","NA","NA","a","NA","20983","NA","NA","20983","NA","2","2141","legacy","NA","1024","2","48000","-16","experiment","1_4_mult_F.jpg","13","odd","legacy","NA","NA","NA","NA","NA","2538","NA","2553","NA","76046","79165","23536","76046","2540","mousetracking operator preview effect","0","0","0","no","false","no","1680"
"neutral","undefined","1","undefined","undefined","white","no","legacy","legacy","legacy","0","relative","undefined","undefined","0","NA","0","0","0","0","0","0","0","16","16","0","15","0","no","04/08/19 09:07:11","A simple template for the mouse-tracking paradigm","yes","Experiment-TF.osexp","C:\Users\Kristen\Documents\opPreviewExperiment-master\procedure","no","mono","no","24","no","black","no","yes","1050","legacy","0","15","C:/Users/Kristen/Documents/opPreviewExperiment-master/procedure/subject-13.csv","legacy","Kafkaesque Koffka","3.2.6","add","0","l","NA","NA","a","l","11645","NA","NA","20983","11645","2","3744","legacy","large","1024","2","48000","-16","experiment","9_7_add_FNI.jpg","13","odd","legacy","90846","NA","90842","NA","NA","2538","NA","2553","79196","90846","95579","23536","76046","2540","mousetracking operator preview effect","0","0","0","no","false","no","1680"
"neutral","undefined","0","undefined","undefined","white","no","legacy","legacy","legacy","0","relative","undefined","undefined","1","NA","0","0","0","0","0","0","0","17","17","0","15","0","no","04/08/19 09:07:11","A simple template for the mouse-tracking paradigm","yes","Experiment-TF.osexp","C:\Users\Kristen\Documents\opPreviewExperiment-master\procedure","no","mono","no","24","no","black","no","yes","1050","legacy","1","15","C:/Users/Kristen/Documents/opPreviewExperiment-master/procedure/subject-13.csv","legacy","Kafkaesque Koffka","3.2.6","mult","0","l","NA","NA","a","l","11645","NA","NA","20983","11645","2","6264","legacy","large","1024","2","48000","-16","experiment","9_7_mult_true.jpg","13","odd","legacy","95602","NA","90842","NA","NA","2538","NA","2553","79196","95602","103865","23536","76046","2540","mousetracking operator preview effect","0","0","0","no","true","no","1680"
"neutral","undefined","1","undefined","undefined","white","no","legacy","legacy","legacy","0","relative","undefined","undefined","2","NA","0","0","0","0","0","0","0","18","18","0","15","0","no","04/08/19 09:07:11","A simple template for the mouse-tracking paradigm","yes","Experiment-TF.osexp","C:\Users\Kristen\Documents\opPreviewExperiment-master\procedure","no","mono","no","24","no","black","no","yes","1050","legacy","2","15","C:/Users/Kristen/Documents/opPreviewExperiment-master/procedure/subject-13.csv","legacy","Kafkaesque Koffka","3.2.6","mult","0","l","NA","NA","a","l","11645","NA","NA","20983","11645","2","3691","legacy","large","1024","2","48000","-16","experiment","6_8_mult_FNI.jpg","13","odd","legacy","103882","NA","90842","NA","NA","2538","NA","2553","79196","103883","108547","23536","76046","2540","mousetracking operator preview effect","0","0","0","no","false","no","1680"
"neutral","undefined","1","undefined","undefined","white","no","legacy","legacy","legacy","0","relative","undefined","undefined","3","NA","0","0","0","0","0","0","0","19","19","0","15","0","no","04/08/19 09:07:11","A simple template for the mouse-tracking paradigm","yes","Experiment-TF.osexp","C:\Users\Kristen\Documents\opPreviewExperiment-master\procedure","no","mono","no","24","no","black","no","yes","1050","legacy","3","15","C:/Users/Kristen/Documents/opPreviewExperiment-master/procedure/subject-13.csv","legacy","Kafkaesque Koffka","3.2.6","mult","0","a","NA","NA","a","l","11645","NA","NA","20983","11645","2","2468","legacy","small","1024","2","48000","-16","experiment","8_2_mult_true.jpg","13","odd","legacy","108563","NA","90842","NA","NA","2538","NA","2553","79196","108563","112019","23536","76046","2540","mousetracking operator preview effect","0","0","0","no","true","no","1680"
"negative","undefined","1","undefined","undefined","white","no","legacy","legacy","legacy","0","relative","undefined","undefined","4","NA","0","0","0","0","0","0","0","20","20","0","15","0","no","04/08/19 09:07:11","A simple template for the mouse-tracking paradigm","yes","Experiment-TF.osexp","C:\Users\Kristen\Documents\opPreviewExperiment-master\procedure","no","mono","no","24","no","black","no","yes","1050","legacy","4","15","C:/Users/Kristen/Documents/opPreviewExperiment-master/procedure/subject-13.csv","legacy","Kafkaesque Koffka","3.2.6","mult","0","a","NA","NA","a","l","11645","NA","NA","20983","11645","2","1581","legacy","large","1024","2","48000","-16","experiment","8_4_mult_true.jpg","13","odd","legacy","112041","NA","90842","NA","NA","2538","NA","2553","79196","112041","114780","23536","76046","2540","mousetracking operator preview effect","0","0","0","no","true","no","1680"
"negative","undefined","1","undefined","undefined","white","no","legacy","legacy","legacy","0","relative","undefined","undefined","5","NA","0","0","0","0","0","0","0","21","21","0","15","0","no","04/08/19 09:07:11","A simple template for the mouse-tracking paradigm","yes","Experiment-TF.osexp","C:\Users\Kristen\Documents\opPreviewExperiment-master\procedure","no","mono","no","24","no","black","no","yes","1050","legacy","5","15","C:/Users/Kristen/Documents/opPreviewExperiment-master/procedure/subject-13.csv","legacy","Kafkaesque Koffka","3.2.6","mult","0","l","NA","NA","a","l","11645","NA","NA","20983","11645","2","1968","legacy","large","1024","2","48000","-16","experiment","6_8_mult_FI.jpg","13","odd","legacy","114805","NA","90842","NA","NA","2538","NA","2553","79196","114805","117932","23536","76046","2540","mousetracking operator preview effect","0","0","0","no","false","no","1680"
"negative","undefined","1","undefined","undefined","white","no","legacy","legacy","legacy","0","relative","undefined","undefined","6","NA","0","0","0","0","0","0","0","22","22","0","15","0","no","04/08/19 09:07:11","A simple template for the mouse-tracking paradigm","yes","Experiment-TF.osexp","C:\Users\Kristen\Documents\opPreviewExperiment-master\procedure","no","mono","no","24","no","black","no","yes","1050","legacy","6","15","C:/Users/Kristen/Documents/opPreviewExperiment-master/procedure/subject-13.csv","legacy","Kafkaesque Koffka","3.2.6","mult","0","a","NA","NA","a","l","11645","NA","NA","20983","11645","2","1678","legacy","small","1024","2","48000","-16","experiment","2_7_mult_true.jpg","13","odd","legacy","117961","NA","90842","NA","NA","2538","NA","2553","79196","117961","120802","23536","76046","2540","mousetracking operator preview effect","0","0","0","no","true","no","1680"
"negative","undefined","1","undefined","undefined","white","no","legacy","legacy","legacy","0","relative","undefined","undefined","7","NA","0","0","0","0","0","0","0","23","23","0","15","0","no","04/08/19 09:07:11","A simple template for the mouse-tracking paradigm","yes","Experiment-TF.osexp","C:\Users\Kristen\Documents\opPreviewExperiment-master\procedure","no","mono","no","24","no","black","no","yes","1050","legacy","7","15","C:/Users/Kristen/Documents/opPreviewExperiment-master/procedure/subject-13.csv","legacy","Kafkaesque Koffka","3.2.6","mult","0","l","NA","NA","a","l","11645","NA","NA","20983","11645","2","2068","legacy","small","1024","2","48000","-16","experiment","5_3_mult_FNI.jpg","13","odd","legacy","120833","NA","90842","NA","NA","2538","NA","2553","79196","120833","124062","23536","76046","2540","mousetracking operator preview effect","0","0","0","no","false","no","1680"
"neutral","undefined","1","undefined","undefined","white","no","legacy","legacy","legacy","0","relative","undefined","undefined","8","NA","0","0","0","0","0","0","0","24","24","0","15","0","no","04/08/19 09:07:11","A simple template for the mouse-tracking paradigm","yes","Experiment-TF.osexp","C:\Users\Kristen\Documents\opPreviewExperiment-master\procedure","no","mono","no","24","no","black","no","yes","1050","legacy","8","15","C:/Users/Kristen/Documents/opPreviewExperiment-master/procedure/subject-13.csv","legacy","Kafkaesque Koffka","3.2.6","mult","0","a","NA","NA","a","l","11645","NA","NA","20983","11645","2","1936","legacy","small","1024","2","48000","-16","experiment","8_2_mult_true.jpg","13","odd","legacy","124094","NA","90842","NA","NA","2538","NA","2553","79196","124094","126991","23536","76046","2540","mousetracking operator preview effect","0","0","0","no","true","no","1680"
"neutral","undefined","1","undefined","undefined","white","no","legacy","legacy","legacy","0","relative","undefined","undefined","9","NA","0","0","0","0","0","0","0","25","25","0","15","0","no","04/08/19 09:07:11","A simple template for the mouse-tracking paradigm","yes","Experiment-TF.osexp","C:\Users\Kristen\Documents\opPreviewExperiment-master\procedure","no","mono","no","24","no","black","no","yes","1050","legacy","9","15","C:/Users/Kristen/Documents/opPreviewExperiment-master/procedure/subject-13.csv","legacy","Kafkaesque Koffka","3.2.6","mult","0","a","NA","NA","a","l","11645","NA","NA","20983","11645","2","1468","legacy","large","1024","2","48000","-16","experiment","8_4_mult_true.jpg","13","odd","legacy","127017","NA","90842","NA","NA","2538","NA","2553","79196","127017","129452","23536","76046","2540","mousetracking operator preview effect","0","0","0","no","true","no","1680"
"neutral","undefined","1","undefined","undefined","white","no","legacy","legacy","legacy","0","relative","undefined","undefined","10","NA","0","0","0","0","0","0","0","26","26","0","15","0","no","04/08/19 09:07:11","A simple template for the mouse-tracking paradigm","yes","Experiment-TF.osexp","C:\Users\Kristen\Documents\opPreviewExperiment-master\procedure","no","mono","no","24","no","black","no","yes","1050","legacy","10","15","C:/Users/Kristen/Documents/opPreviewExperiment-master/procedure/subject-13.csv","legacy","Kafkaesque Koffka","3.2.6","mult","0","a","NA","NA","a","l","11645","NA","NA","20983","11645","2","1635","legacy","small","1024","2","48000","-16","experiment","3_6_mult_true.jpg","13","odd","legacy","129471","NA","90842","NA","NA","2538","NA","2553","79196","129471","132089","23536","76046","2540","mousetracking operator preview effect","0","0","0","no","true","no","1680"
"neutral","undefined","1","undefined","undefined","white","no","legacy","legacy","legacy","0","relative","undefined","undefined","11","NA","0","0","0","0","0","0","0","27","27","0","15","0","no","04/08/19 09:07:11","A simple template for the mouse-tracking paradigm","yes","Experiment-TF.osexp","C:\Users\Kristen\Documents\opPreviewExperiment-master\procedure","no","mono","no","24","no","black","no","yes","1050","legacy","11","15","C:/Users/Kristen/Documents/opPreviewExperiment-master/procedure/subject-13.csv","legacy","Kafkaesque Koffka","3.2.6","mult","0","l","NA","NA","a","l","11645","NA","NA","20983","11645","2","1768","legacy","large","1024","2","48000","-16","experiment","6_8_mult_FI.jpg","13","odd","legacy","132114","NA","90842","NA","NA","2538","NA","2553","79196","132115","134858","23536","76046","2540","mousetracking operator preview effect","0","0","0","no","false","no","1680"
"negative","undefined","1","undefined","undefined","white","no","legacy","legacy","legacy","0","relative","undefined","undefined","12","NA","0","0","0","0","0","0","0","28","28","0","15","0","no","04/08/19 09:07:11","A simple template for the mouse-tracking paradigm","yes","Experiment-TF.osexp","C:\Users\Kristen\Documents\opPreviewExperiment-master\procedure","no","mono","no","24","no","black","no","yes","1050","legacy","12","15","C:/Users/Kristen/Documents/opPreviewExperiment-master/procedure/subject-13.csv","legacy","Kafkaesque Koffka","3.2.6","mult","0","l","NA","NA","a","l","11645","NA","NA","20983","11645","2","2955","legacy","large","1024","2","48000","-16","experiment","8_4_mult_FI.jpg","13","odd","legacy","134878","NA","90842","NA","NA","2538","NA","2553","79196","134878","139000","23536","76046","2540","mousetracking operator preview effect","0","0","0","no","false","no","1680"
"negative","undefined","1","undefined","undefined","white","no","legacy","legacy","legacy","0","relative","undefined","undefined","13","NA","0","0","0","0","0","0","0","29","29","0","15","0","no","04/08/19 09:07:11","A simple template for the mouse-tracking paradigm","yes","Experiment-TF.osexp","C:\Users\Kristen\Documents\opPreviewExperiment-master\procedure","no","mono","no","24","no","black","no","yes","1050","legacy","13","15","C:/Users/Kristen/Documents/opPreviewExperiment-master/procedure/subject-13.csv","legacy","Kafkaesque Koffka","3.2.6","mult","0","a","NA","NA","a","l","11645","NA","NA","20983","11645","2","4560","legacy","large","1024","2","48000","-16","experiment","4_9_mult_true.jpg","13","odd","legacy","139024","NA","90842","NA","NA","2538","NA","2553","79196","139024","144740","23536","76046","2540","mousetracking operator preview effect","0","0","0","no","true","no","1680"
"neutral","undefined","1","undefined","undefined","white","no","legacy","legacy","legacy","0","relative","undefined","undefined","14","NA","0","0","0","0","0","0","0","30","30","0","15","0","no","04/08/19 09:07:11","A simple template for the mouse-tracking paradigm","yes","Experiment-TF.osexp","C:\Users\Kristen\Documents\opPreviewExperiment-master\procedure","no","mono","no","24","no","black","no","yes","1050","legacy","14","15","C:/Users/Kristen/Documents/opPreviewExperiment-master/procedure/subject-13.csv","legacy","Kafkaesque Koffka","3.2.6","mult","0","a","NA","NA","a","l","11645","NA","NA","20983","11645","2","2335","legacy","small","1024","2","48000","-16","experiment","2_7_mult_true.jpg","13","odd","legacy","144766","NA","90842","NA","NA","2538","NA","2553","79196","144766","148079","23536","76046","2540","mousetracking operator preview effect","0","0","0","no","true","no","1680"
"negative","undefined","1","undefined","undefined","white","no","legacy","legacy","legacy","0","relative","undefined","undefined","15","NA","0","0","0","0","0","0","0","31","31","0","15","0","no","04/08/19 09:07:11","A simple template for the mouse-tracking paradigm","yes","Experiment-TF.osexp","C:\Users\Kristen\Documents\opPreviewExperiment-master\procedure","no","mono","no","24","no","black","no","yes","1050","legacy","15","15","C:/Users/Kristen/Documents/opPreviewExperiment-master/procedure/subject-13.csv","legacy","Kafkaesque Koffka","3.2.6","mult","0","l","NA","NA","a","l","11645","NA","NA","20983","11645","2","1909","legacy","small","1024","2","48000","-16","experiment","8_2_mult_FI.jpg","13","odd","legacy","148103","NA","90842","NA","NA","2538","NA","2553","79196","148103","151174","23536","76046","2540","mousetracking operator preview effect","0","0","0","no","false","no","1680"
"neutral","undefined","1","undefined","undefined","white","no","legacy","legacy","legacy","0","relative","undefined","undefined","16","NA","0","0","0","0","0","0","0","32","32","0","15","0","no","04/08/19 09:07:11","A simple template for the mouse-tracking paradigm","yes","Experiment-TF.osexp","C:\Users\Kristen\Documents\opPreviewExperiment-master\procedure","no","mono","no","24","no","black","no","yes","1050","legacy","16","15","C:/Users/Kristen/Documents/opPreviewExperiment-master/procedure/subject-13.csv","legacy","Kafkaesque Koffka","3.2.6","mult","0","l","NA","NA","a","l","11645","NA","NA","20983","11645","2","4768","legacy","large","1024","2","48000","-16","experiment","8_4_mult_FNI.jpg","13","odd","legacy","151194","NA","90842","NA","NA","2538","NA","2553","79196","151194","156955","23536","76046","2540","mousetracking operator preview effect","0","0","0","no","false","no","1680"
"negative","undefined","1","undefined","undefined","white","no","legacy","legacy","legacy","0","relative","undefined","undefined","17","NA","0","0","0","0","0","0","0","33","33","0","15","0","no","04/08/19 09:07:11","A simple template for the mouse-tracking paradigm","yes","Experiment-TF.osexp","C:\Users\Kristen\Documents\opPreviewExperiment-master\procedure","no","mono","no","24","no","black","no","yes","1050","legacy","17","15","C:/Users/Kristen/Documents/opPreviewExperiment-master/procedure/subject-13.csv","legacy","Kafkaesque Koffka","3.2.6","add","0","l","NA","NA","a","l","11645","NA","NA","20983","11645","2","2644","legacy","large","1024","2","48000","-16","experiment","4_9_add_FNI.jpg","13","odd","legacy","156971","NA","90842","NA","NA","2538","NA","2553","79196","156971","160763","23536","76046","2540","mousetracking operator preview effect","0","0","0","no","false","no","1680"
"negative","undefined","1","undefined","undefined","white","no","legacy","legacy","legacy","0","relative","undefined","undefined","18","NA","0","0","0","0","0","0","0","34","34","0","15","0","no","04/08/19 09:07:11","A simple template for the mouse-tracking paradigm","yes","Experiment-TF.osexp","C:\Users\Kristen\Documents\opPreviewExperiment-master\procedure","no","mono","no","24","no","black","no","yes","1050","legacy","18","15","C:/Users/Kristen/Documents/opPreviewExperiment-master/procedure/subject-13.csv","legacy","Kafkaesque Koffka","3.2.6","add","0","l","NA","NA","a","l","11645","NA","NA","20983","11645","2","2420","legacy","small","1024","2","48000","-16","experiment","8_2_add_FI.jpg","13","odd","legacy","160790","NA","90842","NA","NA","2538","NA","2553","79196","160790","164370","23536","76046","2540","mousetracking operator preview effect","0","0","0","no","false","no","1680"
"neutral","undefined","1","undefined","undefined","white","no","legacy","legacy","legacy","0","relative","undefined","undefined","19","NA","0","0","0","0","0","0","0","35","35","0","15","0","no","04/08/19 09:07:11","A simple template for the mouse-tracking paradigm","yes","Experiment-TF.osexp","C:\Users\Kristen\Documents\opPreviewExperiment-master\procedure","no","mono","no","24","no","black","no","yes","1050","legacy","19","15","C:/Users/Kristen/Documents/opPreviewExperiment-master/procedure/subject-13.csv","legacy","Kafkaesque Koffka","3.2.6","add","0","a","NA","NA","a","l","11645","NA","NA","20983","11645","2","4742","legacy","large","1024","2","48000","-16","experiment","6_8_add_true.jpg","13","odd","legacy","164395","NA","90842","NA","NA","2538","NA","2553","79196","164395","170139","23536","76046","2540","mousetracking operator preview effect","0","0","0","no","true","no","1680"
"neutral","undefined","1","undefined","undefined","white","no","legacy","legacy","legacy","0","relative","undefined","undefined","20","NA","0","0","0","0","0","0","0","36","36","0","15","0","no","04/08/19 09:07:11","A simple template for the mouse-tracking paradigm","yes","Experiment-TF.osexp","C:\Users\Kristen\Documents\opPreviewExperiment-master\procedure","no","mono","no","24","no","black","no","yes","1050","legacy","20","15","C:/Users/Kristen/Documents/opPreviewExperiment-master/procedure/subject-13.csv","legacy","Kafkaesque Koffka","3.2.6","add","0","l","NA","NA","a","l","11645","NA","NA","20983","11645","2","3163","legacy","large","1024","2","48000","-16","experiment","8_4_add_FI.jpg","13","odd","legacy","170169","NA","90842","NA","NA","2538","NA","2553","79196","170170","174322","23536","76046","2540","mousetracking operator preview effect","0","0","0","no","false","no","1680"
"neutral","undefined","0","undefined","undefined","white","no","legacy","legacy","legacy","0","relative","undefined","undefined","21","NA","0","0","0","0","0","0","0","37","37","0","15","0","no","04/08/19 09:07:11","A simple template for the mouse-tracking paradigm","yes","Experiment-TF.osexp","C:\Users\Kristen\Documents\opPreviewExperiment-master\procedure","no","mono","no","24","no","black","no","yes","1050","legacy","21","15","C:/Users/Kristen/Documents/opPreviewExperiment-master/procedure/subject-13.csv","legacy","Kafkaesque Koffka","3.2.6","add","0","a","NA","NA","a","l","11645","NA","NA","20983","11645","2","3395","legacy","small","1024","2","48000","-16","experiment","8_2_add_FNI.jpg","13","odd","legacy","174343","NA","90842","NA","NA","2538","NA","2553","79196","174343","179738","23536","76046","2540","mousetracking operator preview effect","0","0","0","no","false","no","1680"
"neutral","undefined","1","undefined","undefined","white","no","legacy","legacy","legacy","0","relative","undefined","undefined","22","NA","0","0","0","0","0","0","0","38","38","0","15","0","no","04/08/19 09:07:11","A simple template for the mouse-tracking paradigm","yes","Experiment-TF.osexp","C:\Users\Kristen\Documents\opPreviewExperiment-master\procedure","no","mono","no","24","no","black","no","yes","1050","legacy","22","15","C:/Users/Kristen/Documents/opPreviewExperiment-master/procedure/subject-13.csv","legacy","Kafkaesque Koffka","3.2.6","add","0","l","NA","NA","a","l","11645","NA","NA","20983","11645","2","2564","legacy","large","1024","2","48000","-16","experiment","4_9_add_FNI.jpg","13","odd","legacy","179764","NA","90842","NA","NA","2538","NA","2553","79196","179765","183299","23536","76046","2540","mousetracking operator preview effect","0","0","0","no","false","no","1680"
"negative","undefined","1","undefined","undefined","white","no","legacy","legacy","legacy","0","relative","undefined","undefined","23","NA","0","0","0","0","0","0","0","39","39","0","15","0","no","04/08/19 09:07:11","A simple template for the mouse-tracking paradigm","yes","Experiment-TF.osexp","C:\Users\Kristen\Documents\opPreviewExperiment-master\procedure","no","mono","no","24","no","black","no","yes","1050","legacy","23","15","C:/Users/Kristen/Documents/opPreviewExperiment-master/procedure/subject-13.csv","legacy","Kafkaesque Koffka","3.2.6","mult","0","l","NA","NA","a","l","11645","NA","NA","20983","11645","2","3073","legacy","large","1024","2","48000","-16","experiment","4_9_mult_FNI.jpg","13","odd","legacy","183319","NA","90842","NA","NA","2538","NA","2553","79196","183319","187559","23536","76046","2540","mousetracking operator preview effect","0","0","0","no","false","no","1680"
"negative","undefined","1","undefined","undefined","white","no","legacy","legacy","legacy","0","relative","undefined","undefined","24","NA","0","0","0","0","0","0","0","40","40","0","15","0","no","04/08/19 09:07:11","A simple template for the mouse-tracking paradigm","yes","Experiment-TF.osexp","C:\Users\Kristen\Documents\opPreviewExperiment-master\procedure","no","mono","no","24","no","black","no","yes","1050","legacy","24","15","C:/Users/Kristen/Documents/opPreviewExperiment-master/procedure/subject-13.csv","legacy","Kafkaesque Koffka","3.2.6","mult","0","a","NA","NA","a","l","11645","NA","NA","20983","11645","2","1956","legacy","large","1024","2","48000","-16","experiment","6_8_mult_true.jpg","13","odd","legacy","187581","NA","90842","NA","NA","2538","NA","2553","79196","187581","190697","23536","76046","2540","mousetracking operator preview effect","0","0","0","no","true","no","1680"
"negative","undefined","1","undefined","undefined","white","no","legacy","legacy","legacy","0","relative","undefined","undefined","25","NA","0","0","0","0","0","0","0","41","41","0","15","0","no","04/08/19 09:07:11","A simple template for the mouse-tracking paradigm","yes","Experiment-TF.osexp","C:\Users\Kristen\Documents\opPreviewExperiment-master\procedure","no","mono","no","24","no","black","no","yes","1050","legacy","25","15","C:/Users/Kristen/Documents/opPreviewExperiment-master/procedure/subject-13.csv","legacy","Kafkaesque Koffka","3.2.6","mult","0","l","NA","NA","a","l","11645","NA","NA","20983","11645","2","3599","legacy","large","1024","2","48000","-16","experiment","9_7_mult_FNI.jpg","13","odd","legacy","190717","NA","90842","NA","NA","2538","NA","2553","79196","190717","195479","23536","76046","2540","mousetracking operator preview effect","0","0","0","no","false","no","1680"
"negative","undefined","1","undefined","undefined","white","no","legacy","legacy","legacy","0","relative","undefined","undefined","26","NA","0","0","0","0","0","0","0","42","42","0","15","0","no","04/08/19 09:07:11","A simple template for the mouse-tracking paradigm","yes","Experiment-TF.osexp","C:\Users\Kristen\Documents\opPreviewExperiment-master\procedure","no","mono","no","24","no","black","no","yes","1050","legacy","26","15","C:/Users/Kristen/Documents/opPreviewExperiment-master/procedure/subject-13.csv","legacy","Kafkaesque Koffka","3.2.6","mult","0","a","NA","NA","a","l","11645","NA","NA","20983","11645","2","6462","legacy","large","1024","2","48000","-16","experiment","9_7_mult_true.jpg","13","odd","legacy","195503","NA","90842","NA","NA","2538","NA","2553","79196","195503","203107","23536","76046","2540","mousetracking operator preview effect","0","0","0","no","true","no","1680"
"negative","undefined","1","undefined","undefined","white","no","legacy","legacy","legacy","0","relative","undefined","undefined","27","NA","0","0","0","0","0","0","0","43","43","0","15","0","no","04/08/19 09:07:11","A simple template for the mouse-tracking paradigm","yes","Experiment-TF.osexp","C:\Users\Kristen\Documents\opPreviewExperiment-master\procedure","no","mono","no","24","no","black","no","yes","1050","legacy","27","15","C:/Users/Kristen/Documents/opPreviewExperiment-master/procedure/subject-13.csv","legacy","Kafkaesque Koffka","3.2.6","mult","0","l","NA","NA","a","l","11645","NA","NA","20983","11645","2","3321","legacy","large","1024","2","48000","-16","experiment","4_9_mult_FI.jpg","13","odd","legacy","203134","NA","90842","NA","NA","2538","NA","2553","79196","203134","207617","23536","76046","2540","mousetracking operator preview effect","0","0","0","no","false","no","1680"
"negative","undefined","1","undefined","undefined","white","no","legacy","legacy","legacy","0","relative","undefined","undefined","28","NA","0","0","0","0","0","0","0","44","44","0","15","0","no","04/08/19 09:07:11","A simple template for the mouse-tracking paradigm","yes","Experiment-TF.osexp","C:\Users\Kristen\Documents\opPreviewExperiment-master\procedure","no","mono","no","24","no","black","no","yes","1050","legacy","28","15","C:/Users/Kristen/Documents/opPreviewExperiment-master/procedure/subject-13.csv","legacy","Kafkaesque Koffka","3.2.6","add","0","a","NA","NA","a","l","11645","NA","NA","20983","11645","2","1959","legacy","small","1024","2","48000","-16","experiment","5_3_add_true.jpg","13","odd","legacy","207639","NA","90842","NA","NA","2538","NA","2553","79196","207639","210757","23536","76046","2540","mousetracking operator preview effect","0","0","0","no","true","no","1680"
"neutral","undefined","1","undefined","undefined","white","no","legacy","legacy","legacy","0","relative","undefined","undefined","29","NA","0","0","0","0","0","0","0","45","45","0","15","0","no","04/08/19 09:07:11","A simple template for the mouse-tracking paradigm","yes","Experiment-TF.osexp","C:\Users\Kristen\Documents\opPreviewExperiment-master\procedure","no","mono","no","24","no","black","no","yes","1050","legacy","29","15","C:/Users/Kristen/Documents/opPreviewExperiment-master/procedure/subject-13.csv","legacy","Kafkaesque Koffka","3.2.6","mult","0","l","NA","NA","a","l","11645","NA","NA","20983","11645","2","2535","legacy","small","1024","2","48000","-16","experiment","3_6_mult_FNI.jpg","13","odd","legacy","210778","NA","90842","NA","NA","2538","NA","2553","79196","210778","214302","23536","76046","2540","mousetracking operator preview effect","0","0","0","no","false","no","1680"
"neutral","undefined","1","undefined","undefined","white","no","legacy","legacy","legacy","0","relative","undefined","undefined","30","NA","0","0","0","0","0","0","0","46","46","0","15","0","no","04/08/19 09:07:11","A simple template for the mouse-tracking paradigm","yes","Experiment-TF.osexp","C:\Users\Kristen\Documents\opPreviewExperiment-master\procedure","no","mono","no","24","no","black","no","yes","1050","legacy","30","15","C:/Users/Kristen/Documents/opPreviewExperiment-master/procedure/subject-13.csv","legacy","Kafkaesque Koffka","3.2.6","mult","0","a","NA","NA","a","l","11645","NA","NA","20983","11645","2","1511","legacy","small","1024","2","48000","-16","experiment","5_3_mult_true.jpg","13","odd","legacy","214326","NA","90842","NA","NA","2538","NA","2553","79196","214326","216819","23536","76046","2540","mousetracking operator preview effect","0","0","0","no","true","no","1680"
"negative","undefined","1","undefined","undefined","white","no","legacy","legacy","legacy","0","relative","undefined","undefined","31","NA","0","0","0","0","0","0","0","47","47","0","15","0","no","04/08/19 09:07:11","A simple template for the mouse-tracking paradigm","yes","Experiment-TF.osexp","C:\Users\Kristen\Documents\opPreviewExperiment-master\procedure","no","mono","no","24","no","black","no","yes","1050","legacy","31","15","C:/Users/Kristen/Documents/opPreviewExperiment-master/procedure/subject-13.csv","legacy","Kafkaesque Koffka","3.2.6","add","0","a","NA","NA","a","l","11645","NA","NA","20983","11645","2","2219","legacy","small","1024","2","48000","-16","experiment","2_7_add_true.jpg","13","odd","legacy","216841","NA","90842","NA","NA","2538","NA","2553","79196","216841","220209","23536","76046","2540","mousetracking operator preview effect","0","0","0","no","true","no","1680"
"neutral","undefined","1","undefined","undefined","white","no","legacy","legacy","legacy","0","relative","undefined","undefined","32","NA","0","0","0","0","0","0","0","48","48","0","15","0","no","04/08/19 09:07:11","A simple template for the mouse-tracking paradigm","yes","Experiment-TF.osexp","C:\Users\Kristen\Documents\opPreviewExperiment-master\procedure","no","mono","no","24","no","black","no","yes","1050","legacy","32","15","C:/Users/Kristen/Documents/opPreviewExperiment-master/procedure/subject-13.csv","legacy","Kafkaesque Koffka","3.2.6","mult","0","l","NA","NA","a","l","11645","NA","NA","20983","11645","2","1934","legacy","small","1024","2","48000","-16","experiment","8_2_mult_FNI.jpg","13","odd","legacy","220234","NA","90842","NA","NA","2538","NA","2553","79196","220234","223156","23536","76046","2540","mousetracking operator preview effect","0","0","0","no","false","no","1680"
"negative","undefined","1","undefined","undefined","white","no","legacy","legacy","legacy","0","relative","undefined","undefined","33","NA","0","0","0","0","0","0","0","49","49","0","15","0","no","04/08/19 09:07:11","A simple template for the mouse-tracking paradigm","yes","Experiment-TF.osexp","C:\Users\Kristen\Documents\opPreviewExperiment-master\procedure","no","mono","no","24","no","black","no","yes","1050","legacy","33","15","C:/Users/Kristen/Documents/opPreviewExperiment-master/procedure/subject-13.csv","legacy","Kafkaesque Koffka","3.2.6","add","0","l","NA","NA","a","l","11645","NA","NA","20983","11645","2","2112","legacy","small","1024","2","48000","-16","experiment","5_3_add_FNI.jpg","13","odd","legacy","223181","NA","90842","NA","NA","2538","NA","2553","79196","223181","226430","23536","76046","2540","mousetracking operator preview effect","0","0","0","no","false","no","1680"
"negative","undefined","1","undefined","undefined","white","no","legacy","legacy","legacy","0","relative","undefined","undefined","34","NA","0","0","0","0","0","0","0","50","50","0","15","0","no","04/08/19 09:07:11","A simple template for the mouse-tracking paradigm","yes","Experiment-TF.osexp","C:\Users\Kristen\Documents\opPreviewExperiment-master\procedure","no","mono","no","24","no","black","no","yes","1050","legacy","34","15","C:/Users/Kristen/Documents/opPreviewExperiment-master/procedure/subject-13.csv","legacy","Kafkaesque Koffka","3.2.6","add","0","l","NA","NA","a","l","11645","NA","NA","20983","11645","2","4372","legacy","small","1024","2","48000","-16","experiment","2_7_add_FNI.jpg","13","odd","legacy","226461","NA","90842","NA","NA","2538","NA","2553","79196","226461","231993","23536","76046","2540","mousetracking operator preview effect","0","0","0","no","false","no","1680"
"negative","undefined","1","undefined","undefined","white","no","legacy","legacy","legacy","0","relative","undefined","undefined","35","NA","0","0","0","0","0","0","0","51","51","0","15","0","no","04/08/19 09:07:11","A simple template for the mouse-tracking paradigm","yes","Experiment-TF.osexp","C:\Users\Kristen\Documents\opPreviewExperiment-master\procedure","no","mono","no","24","no","black","no","yes","1050","legacy","35","15","C:/Users/Kristen/Documents/opPreviewExperiment-master/procedure/subject-13.csv","legacy","Kafkaesque Koffka","3.2.6","add","0","a","NA","NA","a","l","11645","NA","NA","20983","11645","2","3347","legacy","small","1024","2","48000","-16","experiment","3_6_add_true.jpg","13","odd","legacy","232016","NA","90842","NA","NA","2538","NA","2553","79196","232016","236523","23536","76046","2540","mousetracking operator preview effect","0","0","0","no","true","no","1680"
"negative","undefined","1","undefined","undefined","white","no","legacy","legacy","legacy","0","relative","undefined","undefined","36","NA","0","0","0","0","0","0","0","52","52","0","15","0","no","04/08/19 09:07:11","A simple template for the mouse-tracking paradigm","yes","Experiment-TF.osexp","C:\Users\Kristen\Documents\opPreviewExperiment-master\procedure","no","mono","no","24","no","black","no","yes","1050","legacy","36","15","C:/Users/Kristen/Documents/opPreviewExperiment-master/procedure/subject-13.csv","legacy","Kafkaesque Koffka","3.2.6","add","0","a","NA","NA","a","l","11645","NA","NA","20983","11645","2","1900","legacy","large","1024","2","48000","-16","experiment","8_4_add_true.jpg","13","odd","legacy","236554","NA","90842","NA","NA","2538","NA","2553","79196","236554","239609","23536","76046","2540","mousetracking operator preview effect","0","0","0","no","true","no","1680"
"neutral","undefined","1","undefined","undefined","white","no","legacy","legacy","legacy","0","relative","undefined","undefined","37","NA","0","0","0","0","0","0","0","53","53","0","15","0","no","04/08/19 09:07:11","A simple template for the mouse-tracking paradigm","yes","Experiment-TF.osexp","C:\Users\Kristen\Documents\opPreviewExperiment-master\procedure","no","mono","no","24","no","black","no","yes","1050","legacy","37","15","C:/Users/Kristen/Documents/opPreviewExperiment-master/procedure/subject-13.csv","legacy","Kafkaesque Koffka","3.2.6","mult","0","a","NA","NA","a","l","11645","NA","NA","20983","11645","2","1889","legacy","small","1024","2","48000","-16","experiment","2_7_mult_true.jpg","13","odd","legacy","239630","NA","90842","NA","NA","2538","NA","2553","79196","239630","242491","23536","76046","2540","mousetracking operator preview effect","0","0","0","no","true","no","1680"
"negative","undefined","1","undefined","undefined","white","no","legacy","legacy","legacy","0","relative","undefined","undefined","38","NA","0","0","0","0","0","0","0","54","54","0","15","0","no","04/08/19 09:07:11","A simple template for the mouse-tracking paradigm","yes","Experiment-TF.osexp","C:\Users\Kristen\Documents\opPreviewExperiment-master\procedure","no","mono","no","24","no","black","no","yes","1050","legacy","38","15","C:/Users/Kristen/Documents/opPreviewExperiment-master/procedure/subject-13.csv","legacy","Kafkaesque Koffka","3.2.6","mult","0","l","NA","NA","a","l","11645","NA","NA","20983","11645","2","1743","legacy","small","1024","2","48000","-16","experiment","8_2_mult_FNI.jpg","13","odd","legacy","242526","NA","90842","NA","NA","2538","NA","2553","79196","242526","245417","23536","76046","2540","mousetracking operator preview effect","0","0","0","no","false","no","1680"
"negative","undefined","1","undefined","undefined","white","no","legacy","legacy","legacy","0","relative","undefined","undefined","39","NA","0","0","0","0","0","0","0","55","55","0","15","0","no","04/08/19 09:07:11","A simple template for the mouse-tracking paradigm","yes","Experiment-TF.osexp","C:\Users\Kristen\Documents\opPreviewExperiment-master\procedure","no","mono","no","24","no","black","no","yes","1050","legacy","39","15","C:/Users/Kristen/Documents/opPreviewExperiment-master/procedure/subject-13.csv","legacy","Kafkaesque Koffka","3.2.6","add","0","a","NA","NA","a","l","11645","NA","NA","20983","11645","2","2739","legacy","small","1024","2","48000","-16","experiment","2_7_add_true.jpg","13","odd","legacy","245447","NA","90842","NA","NA","2538","NA","2553","79196","245447","249328","23536","76046","2540","mousetracking operator preview effect","0","0","0","no","true","no","1680"
"negative","undefined","1","undefined","undefined","white","no","legacy","legacy","legacy","0","relative","undefined","undefined","40","NA","0","0","0","0","0","0","0","56","56","0","15","0","no","04/08/19 09:07:11","A simple template for the mouse-tracking paradigm","yes","Experiment-TF.osexp","C:\Users\Kristen\Documents\opPreviewExperiment-master\procedure","no","mono","no","24","no","black","no","yes","1050","legacy","40","15","C:/Users/Kristen/Documents/opPreviewExperiment-master/procedure/subject-13.csv","legacy","Kafkaesque Koffka","3.2.6","add","0","l","NA","NA","a","l","11645","NA","NA","20983","11645","2","2318","legacy","large","1024","2","48000","-16","experiment","9_7_add_FNI.jpg","13","odd","legacy","249354","NA","90842","NA","NA","2538","NA","2553","79196","249354","252819","23536","76046","2540","mousetracking operator preview effect","0","0","0","no","false","no","1680"
"negative","undefined","1","undefined","undefined","white","no","legacy","legacy","legacy","0","relative","undefined","undefined","41","NA","0","0","0","0","0","0","0","57","57","0","15","0","no","04/08/19 09:07:11","A simple template for the mouse-tracking paradigm","yes","Experiment-TF.osexp","C:\Users\Kristen\Documents\opPreviewExperiment-master\procedure","no","mono","no","24","no","black","no","yes","1050","legacy","41","15","C:/Users/Kristen/Documents/opPreviewExperiment-master/procedure/subject-13.csv","legacy","Kafkaesque Koffka","3.2.6","add","0","a","NA","NA","a","l","11645","NA","NA","20983","11645","2","2609","legacy","large","1024","2","48000","-16","experiment","6_8_add_true.jpg","13","odd","legacy","252833","NA","90842","NA","NA","2538","NA","2553","79196","252833","256586","23536","76046","2540","mousetracking operator preview effect","0","0","0","no","true","no","1680"
"neutral","undefined","1","undefined","undefined","white","no","legacy","legacy","legacy","0","relative","undefined","undefined","42","NA","0","0","0","0","0","0","0","58","58","0","15","0","no","04/08/19 09:07:11","A simple template for the mouse-tracking paradigm","yes","Experiment-TF.osexp","C:\Users\Kristen\Documents\opPreviewExperiment-master\procedure","no","mono","no","24","no","black","no","yes","1050","legacy","42","15","C:/Users/Kristen/Documents/opPreviewExperiment-master/procedure/subject-13.csv","legacy","Kafkaesque Koffka","3.2.6","mult","0","l","NA","NA","a","l","11645","NA","NA","20983","11645","2","3652","legacy","small","1024","2","48000","-16","experiment","2_7_mult_FI.jpg","13","odd","legacy","256609","NA","90842","NA","NA","2538","NA","2553","79196","256609","261248","23536","76046","2540","mousetracking operator preview effect","0","0","0","no","false","no","1680"
"neutral","undefined","1","undefined","undefined","white","no","legacy","legacy","legacy","0","relative","undefined","undefined","43","NA","0","0","0","0","0","0","0","59","59","0","15","0","no","04/08/19 09:07:11","A simple template for the mouse-tracking paradigm","yes","Experiment-TF.osexp","C:\Users\Kristen\Documents\opPreviewExperiment-master\procedure","no","mono","no","24","no","black","no","yes","1050","legacy","43","15","C:/Users/Kristen/Documents/opPreviewExperiment-master/procedure/subject-13.csv","legacy","Kafkaesque Koffka","3.2.6","mult","0","a","NA","NA","a","l","11645","NA","NA","20983","11645","2","1860","legacy","small","1024","2","48000","-16","experiment","5_3_mult_true.jpg","13","odd","legacy","261263","NA","90842","NA","NA","2538","NA","2553","79196","261263","264092","23536","76046","2540","mousetracking operator preview effect","0","0","0","no","true","no","1680"
"neutral","undefined","1","undefined","undefined","white","no","legacy","legacy","legacy","0","relative","undefined","undefined","44","NA","0","0","0","0","0","0","0","60","60","0","15","0","no","04/08/19 09:07:11","A simple template for the mouse-tracking paradigm","yes","Experiment-TF.osexp","C:\Users\Kristen\Documents\opPreviewExperiment-master\procedure","no","mono","no","24","no","black","no","yes","1050","legacy","44","15","C:/Users/Kristen/Documents/opPreviewExperiment-master/procedure/subject-13.csv","legacy","Kafkaesque Koffka","3.2.6","add","0","a","NA","NA","a","l","11645","NA","NA","20983","11645","2","3980","legacy","large","1024","2","48000","-16","experiment","4_9_add_true.jpg","13","odd","legacy","264115","NA","90842","NA","NA","2538","NA","2553","79196","264115","269072","23536","76046","2540","mousetracking operator preview effect","0","0","0","no","true","no","1680"
"neutral","undefined","1","undefined","undefined","white","no","legacy","legacy","legacy","0","relative","undefined","undefined","45","NA","0","0","0","0","0","0","0","61","61","0","15","0","no","04/08/19 09:07:11","A simple template for the mouse-tracking paradigm","yes","Experiment-TF.osexp","C:\Users\Kristen\Documents\opPreviewExperiment-master\procedure","no","mono","no","24","no","black","no","yes","1050","legacy","45","15","C:/Users/Kristen/Documents/opPreviewExperiment-master/procedure/subject-13.csv","legacy","Kafkaesque Koffka","3.2.6","add","0","l","NA","NA","a","l","11645","NA","NA","20983","11645","2","3810","legacy","small","1024","2","48000","-16","experiment","2_7_add_FNI.jpg","13","odd","legacy","269086","NA","90842","NA","NA","2538","NA","2553","79196","269086","273866","23536","76046","2540","mousetracking operator preview effect","0","0","0","no","false","no","1680"
"neutral","undefined","1","undefined","undefined","white","no","legacy","legacy","legacy","0","relative","undefined","undefined","46","NA","0","0","0","0","0","0","0","62","62","0","15","0","no","04/08/19 09:07:11","A simple template for the mouse-tracking paradigm","yes","Experiment-TF.osexp","C:\Users\Kristen\Documents\opPreviewExperiment-master\procedure","no","mono","no","24","no","black","no","yes","1050","legacy","46","15","C:/Users/Kristen/Documents/opPreviewExperiment-master/procedure/subject-13.csv","legacy","Kafkaesque Koffka","3.2.6","add","0","l","NA","NA","a","l","11645","NA","NA","20983","11645","2","6019","legacy","small","1024","2","48000","-16","experiment","3_6_add_FI.jpg","13","odd","legacy","273894","NA","90842","NA","NA","2538","NA","2553","79196","273894","280893","23536","76046","2540","mousetracking operator preview effect","0","0","0","no","false","no","1680"
"neutral","undefined","1","undefined","undefined","white","no","legacy","legacy","legacy","0","relative","undefined","undefined","47","NA","0","0","0","0","0","0","0","63","63","0","15","0","no","04/08/19 09:07:11","A simple template for the mouse-tracking paradigm","yes","Experiment-TF.osexp","C:\Users\Kristen\Documents\opPreviewExperiment-master\procedure","no","mono","no","24","no","black","no","yes","1050","legacy","47","15","C:/Users/Kristen/Documents/opPreviewExperiment-master/procedure/subject-13.csv","legacy","Kafkaesque Koffka","3.2.6","add","0","l","NA","NA","a","l","11645","NA","NA","20983","11645","2","2232","legacy","small","1024","2","48000","-16","experiment","5_3_add_FNI.jpg","13","odd","legacy","280919","NA","90842","NA","NA","2538","NA","2553","79196","280919","284126","23536","76046","2540","mousetracking operator preview effect","0","0","0","no","false","no","1680"
"negative","undefined","1","undefined","undefined","white","no","legacy","legacy","legacy","0","relative","undefined","undefined","48","NA","0","0","0","0","0","0","0","64","64","0","15","0","no","04/08/19 09:07:11","A simple template for the mouse-tracking paradigm","yes","Experiment-TF.osexp","C:\Users\Kristen\Documents\opPreviewExperiment-master\procedure","no","mono","no","24","no","black","no","yes","1050","legacy","48","15","C:/Users/Kristen/Documents/opPreviewExperiment-master/procedure/subject-13.csv","legacy","Kafkaesque Koffka","3.2.6","mult","0","a","NA","NA","a","l","11645","NA","NA","20983","11645","2","2075","legacy","small","1024","2","48000","-16","experiment","5_3_mult_true.jpg","13","odd","legacy","284155","NA","90842","NA","NA","2538","NA","2553","79196","284155","287369","23536","76046","2540","mousetracking operator preview effect","0","0","0","no","true","no","1680"
"neutral","undefined","1","undefined","undefined","white","no","legacy","legacy","legacy","0","relative","undefined","undefined","49","NA","0","0","0","0","0","0","0","65","65","0","15","0","no","04/08/19 09:07:11","A simple template for the mouse-tracking paradigm","yes","Experiment-TF.osexp","C:\Users\Kristen\Documents\opPreviewExperiment-master\procedure","no","mono","no","24","no","black","no","yes","1050","legacy","49","15","C:/Users/Kristen/Documents/opPreviewExperiment-master/procedure/subject-13.csv","legacy","Kafkaesque Koffka","3.2.6","add","0","l","NA","NA","a","l","11645","NA","NA","20983","11645","2","2202","legacy","small","1024","2","48000","-16","experiment","2_7_add_FI.jpg","13","odd","legacy","287389","NA","90842","NA","NA","2538","NA","2553","79196","287389","290586","23536","76046","2540","mousetracking operator preview effect","0","0","0","no","false","no","1680"
"negative","undefined","1","undefined","undefined","white","no","legacy","legacy","legacy","0","relative","undefined","undefined","50","NA","0","0","0","0","0","0","0","66","66","0","15","0","no","04/08/19 09:07:11","A simple template for the mouse-tracking paradigm","yes","Experiment-TF.osexp","C:\Users\Kristen\Documents\opPreviewExperiment-master\procedure","no","mono","no","24","no","black","no","yes","1050","legacy","50","15","C:/Users/Kristen/Documents/opPreviewExperiment-master/procedure/subject-13.csv","legacy","Kafkaesque Koffka","3.2.6","mult","0","l","NA","NA","a","l","11645","NA","NA","20983","11645","2","2954","legacy","large","1024","2","48000","-16","experiment","9_7_mult_FI.jpg","13","odd","legacy","290610","NA","90842","NA","NA","2538","NA","2553","79196","290610","294710","23536","76046","2540","mousetracking operator preview effect","0","0","0","no","false","no","1680"
"neutral","undefined","1","undefined","undefined","white","no","legacy","legacy","legacy","0","relative","undefined","undefined","51","NA","0","0","0","0","0","0","0","67","67","0","15","0","no","04/08/19 09:07:11","A simple template for the mouse-tracking paradigm","yes","Experiment-TF.osexp","C:\Users\Kristen\Documents\opPreviewExperiment-master\procedure","no","mono","no","24","no","black","no","yes","1050","legacy","51","15","C:/Users/Kristen/Documents/opPreviewExperiment-master/procedure/subject-13.csv","legacy","Kafkaesque Koffka","3.2.6","add","0","l","NA","NA","a","l","11645","NA","NA","20983","11645","2","1874","legacy","small","1024","2","48000","-16","experiment","8_2_add_FI.jpg","13","odd","legacy","294735","NA","90842","NA","NA","2538","NA","2553","79196","294735","297575","23536","76046","2540","mousetracking operator preview effect","0","0","0","no","false","no","1680"
"neutral","undefined","1","undefined","undefined","white","no","legacy","legacy","legacy","0","relative","undefined","undefined","52","NA","0","0","0","0","0","0","0","68","68","0","15","0","no","04/08/19 09:07:11","A simple template for the mouse-tracking paradigm","yes","Experiment-TF.osexp","C:\Users\Kristen\Documents\opPreviewExperiment-master\procedure","no","mono","no","24","no","black","no","yes","1050","legacy","52","15","C:/Users/Kristen/Documents/opPreviewExperiment-master/procedure/subject-13.csv","legacy","Kafkaesque Koffka","3.2.6","add","0","a","NA","NA","a","l","11645","NA","NA","20983","11645","2","11978","legacy","large","1024","2","48000","-16","experiment","8_4_add_true.jpg","13","odd","legacy","297595","NA","90842","NA","NA","2538","NA","2553","79196","297595","310534","23536","76046","2540","mousetracking operator preview effect","0","0","0","no","true","no","1680"
"negative","undefined","1","undefined","undefined","white","no","legacy","legacy","legacy","0","relative","undefined","undefined","53","NA","0","0","0","0","0","0","0","69","69","0","15","0","no","04/08/19 09:07:11","A simple template for the mouse-tracking paradigm","yes","Experiment-TF.osexp","C:\Users\Kristen\Documents\opPreviewExperiment-master\procedure","no","mono","no","24","no","black","no","yes","1050","legacy","53","15","C:/Users/Kristen/Documents/opPreviewExperiment-master/procedure/subject-13.csv","legacy","Kafkaesque Koffka","3.2.6","add","0","a","NA","NA","a","l","11645","NA","NA","20983","11645","2","1788","legacy","small","1024","2","48000","-16","experiment","5_3_add_true.jpg","13","odd","legacy","310550","NA","90842","NA","NA","2538","NA","2553","79196","310550","313479","23536","76046","2540","mousetracking operator preview effect","0","0","0","no","true","no","1680"
"neutral","undefined","1","undefined","undefined","white","no","legacy","legacy","legacy","0","relative","undefined","undefined","54","NA","0","0","0","0","0","0","0","70","70","0","15","0","no","04/08/19 09:07:11","A simple template for the mouse-tracking paradigm","yes","Experiment-TF.osexp","C:\Users\Kristen\Documents\opPreviewExperiment-master\procedure","no","mono","no","24","no","black","no","yes","1050","legacy","54","15","C:/Users/Kristen/Documents/opPreviewExperiment-master/procedure/subject-13.csv","legacy","Kafkaesque Koffka","3.2.6","add","0","a","NA","NA","a","l","11645","NA","NA","20983","11645","2","5487","legacy","small","1024","2","48000","-16","experiment","2_7_add_true.jpg","13","odd","legacy","313500","NA","90842","NA","NA","2538","NA","2553","79196","313500","319957","23536","76046","2540","mousetracking operator preview effect","0","0","0","no","true","no","1680"
"neutral","undefined","1","undefined","undefined","white","no","legacy","legacy","legacy","0","relative","undefined","undefined","55","NA","0","0","0","0","0","0","0","71","71","0","15","0","no","04/08/19 09:07:11","A simple template for the mouse-tracking paradigm","yes","Experiment-TF.osexp","C:\Users\Kristen\Documents\opPreviewExperiment-master\procedure","no","mono","no","24","no","black","no","yes","1050","legacy","55","15","C:/Users/Kristen/Documents/opPreviewExperiment-master/procedure/subject-13.csv","legacy","Kafkaesque Koffka","3.2.6","mult","0","l","NA","NA","a","l","11645","NA","NA","20983","11645","2","7024","legacy","large","1024","2","48000","-16","experiment","4_9_mult_FNI.jpg","13","odd","legacy","319971","NA","90842","NA","NA","2538","NA","2553","79196","319971","327964","23536","76046","2540","mousetracking operator preview effect","0","0","0","no","false","no","1680"
"neutral","undefined","1","undefined","undefined","white","no","legacy","legacy","legacy","0","relative","undefined","undefined","56","NA","0","0","0","0","0","0","0","72","72","0","15","0","no","04/08/19 09:07:11","A simple template for the mouse-tracking paradigm","yes","Experiment-TF.osexp","C:\Users\Kristen\Documents\opPreviewExperiment-master\procedure","no","mono","no","24","no","black","no","yes","1050","legacy","56","15","C:/Users/Kristen/Documents/opPreviewExperiment-master/procedure/subject-13.csv","legacy","Kafkaesque Koffka","3.2.6","add","0","a","NA","NA","a","l","11645","NA","NA","20983","11645","2","7993","legacy","small","1024","2","48000","-16","experiment","3_6_add_true.jpg","13","odd","legacy","327985","NA","90842","NA","NA","2538","NA","2553","79196","327985","336936","23536","76046","2540","mousetracking operator preview effect","0","0","0","no","true","no","1680"
"neutral","undefined","1","undefined","undefined","white","no","legacy","legacy","legacy","0","relative","undefined","undefined","57","NA","0","0","0","0","0","0","0","73","73","0","15","0","no","04/08/19 09:07:11","A simple template for the mouse-tracking paradigm","yes","Experiment-TF.osexp","C:\Users\Kristen\Documents\opPreviewExperiment-master\procedure","no","mono","no","24","no","black","no","yes","1050","legacy","57","15","C:/Users/Kristen/Documents/opPreviewExperiment-master/procedure/subject-13.csv","legacy","Kafkaesque Koffka","3.2.6","add","0","l","NA","NA","a","l","11645","NA","NA","20983","11645","2","8704","legacy","large","1024","2","48000","-16","experiment","4_9_add_FI.jpg","13","odd","legacy","336967","NA","90842","NA","NA","2538","NA","2553","79196","336967","346661","23536","76046","2540","mousetracking operator preview effect","0","0","0","no","false","no","1680"
"neutral","undefined","1","undefined","undefined","white","no","legacy","legacy","legacy","0","relative","undefined","undefined","58","NA","0","0","0","0","0","0","0","74","74","0","15","0","no","04/08/19 09:07:11","A simple template for the mouse-tracking paradigm","yes","Experiment-TF.osexp","C:\Users\Kristen\Documents\opPreviewExperiment-master\procedure","no","mono","no","24","no","black","no","yes","1050","legacy","58","15","C:/Users/Kristen/Documents/opPreviewExperiment-master/procedure/subject-13.csv","legacy","Kafkaesque Koffka","3.2.6","add","0","a","NA","NA","a","l","11645","NA","NA","20983","11645","2","4871","legacy","large","1024","2","48000","-16","experiment","9_7_add_true.jpg","13","odd","legacy","346675","NA","90842","NA","NA","2538","NA","2553","79196","346675","352532","23536","76046","2540","mousetracking operator preview effect","0","0","0","no","true","no","1680"
"negative","undefined","1","undefined","undefined","white","no","legacy","legacy","legacy","0","relative","undefined","undefined","59","NA","0","0","0","0","0","0","0","75","75","0","15","0","no","04/08/19 09:07:11","A simple template for the mouse-tracking paradigm","yes","Experiment-TF.osexp","C:\Users\Kristen\Documents\opPreviewExperiment-master\procedure","no","mono","no","24","no","black","no","yes","1050","legacy","59","15","C:/Users/Kristen/Documents/opPreviewExperiment-master/procedure/subject-13.csv","legacy","Kafkaesque Koffka","3.2.6","add","0","a","NA","NA","a","l","11645","NA","NA","20983","11645","2","1521","legacy","large","1024","2","48000","-16","experiment","9_7_add_true.jpg","13","odd","legacy","352557","NA","90842","NA","NA","2538","NA","2553","79196","352557","355213","23536","76046","2540","mousetracking operator preview effect","0","0","0","no","true","no","1680"
"neutral","undefined","1","undefined","undefined","white","no","legacy","legacy","legacy","0","relative","undefined","undefined","60","NA","0","0","0","0","0","0","0","76","76","0","15","0","no","04/08/19 09:07:11","A simple template for the mouse-tracking paradigm","yes","Experiment-TF.osexp","C:\Users\Kristen\Documents\opPreviewExperiment-master\procedure","no","mono","no","24","no","black","no","yes","1050","legacy","60","15","C:/Users/Kristen/Documents/opPreviewExperiment-master/procedure/subject-13.csv","legacy","Kafkaesque Koffka","3.2.6","add","0","l","NA","NA","a","l","11645","NA","NA","20983","11645","2","4124","legacy","large","1024","2","48000","-16","experiment","6_8_add_FI.jpg","13","odd","legacy","355238","NA","90842","NA","NA","2538","NA","2553","79196","355238","360341","23536","76046","2540","mousetracking operator preview effect","0","0","0","no","false","no","1680"
"neutral","undefined","1","undefined","undefined","white","no","legacy","legacy","legacy","0","relative","undefined","undefined","61","NA","0","0","0","0","0","0","0","77","77","0","15","0","no","04/08/19 09:07:11","A simple template for the mouse-tracking paradigm","yes","Experiment-TF.osexp","C:\Users\Kristen\Documents\opPreviewExperiment-master\procedure","no","mono","no","24","no","black","no","yes","1050","legacy","61","15","C:/Users/Kristen/Documents/opPreviewExperiment-master/procedure/subject-13.csv","legacy","Kafkaesque Koffka","3.2.6","add","0","a","NA","NA","a","l","11645","NA","NA","20983","11645","2","2195","legacy","large","1024","2","48000","-16","experiment","6_8_add_true.jpg","13","odd","legacy","360371","NA","90842","NA","NA","2538","NA","2553","79196","360371","363533","23536","76046","2540","mousetracking operator preview effect","0","0","0","no","true","no","1680"
"negative","undefined","1","undefined","undefined","white","no","legacy","legacy","legacy","0","relative","undefined","undefined","62","NA","0","0","0","0","0","0","0","78","78","0","15","0","no","04/08/19 09:07:11","A simple template for the mouse-tracking paradigm","yes","Experiment-TF.osexp","C:\Users\Kristen\Documents\opPreviewExperiment-master\procedure","no","mono","no","24","no","black","no","yes","1050","legacy","62","15","C:/Users/Kristen/Documents/opPreviewExperiment-master/procedure/subject-13.csv","legacy","Kafkaesque Koffka","3.2.6","add","0","a","NA","NA","a","l","11645","NA","NA","20983","11645","2","10722","legacy","small","1024","2","48000","-16","experiment","8_2_add_true.jpg","13","odd","legacy","363554","NA","90842","NA","NA","2538","NA","2553","79196","363554","375432","23536","76046","2540","mousetracking operator preview effect","0","0","0","no","true","no","1680"
"neutral","undefined","1","undefined","undefined","white","no","legacy","legacy","legacy","0","relative","undefined","undefined","63","NA","0","0","0","0","0","0","0","79","79","0","15","0","no","04/08/19 09:07:11","A simple template for the mouse-tracking paradigm","yes","Experiment-TF.osexp","C:\Users\Kristen\Documents\opPreviewExperiment-master\procedure","no","mono","no","24","no","black","no","yes","1050","legacy","63","15","C:/Users/Kristen/Documents/opPreviewExperiment-master/procedure/subject-13.csv","legacy","Kafkaesque Koffka","3.2.6","add","0","l","NA","NA","a","l","11645","NA","NA","20983","11645","2","5836","legacy","large","1024","2","48000","-16","experiment","6_8_add_FNI.jpg","13","odd","legacy","375453","NA","90842","NA","NA","2538","NA","2553","79196","375453","382270","23536","76046","2540","mousetracking operator preview effect","0","0","0","no","false","no","1680"
"neutral","undefined","1","undefined","undefined","white","no","legacy","legacy","legacy","0","relative","undefined","undefined","64","NA","0","0","0","0","0","0","0","80","80","0","15","0","no","04/08/19 09:07:11","A simple template for the mouse-tracking paradigm","yes","Experiment-TF.osexp","C:\Users\Kristen\Documents\opPreviewExperiment-master\procedure","no","mono","no","24","no","black","no","yes","1050","legacy","64","15","C:/Users/Kristen/Documents/opPreviewExperiment-master/procedure/subject-13.csv","legacy","Kafkaesque Koffka","3.2.6","mult","0","a","NA","NA","a","l","11645","NA","NA","20983","11645","2","8509","legacy","large","1024","2","48000","-16","experiment","8_4_mult_true.jpg","13","odd","legacy","382298","NA","90842","NA","NA","2538","NA","2553","79196","382298","391771","23536","76046","2540","mousetracking operator preview effect","0","0","0","no","true","no","1680"
"negative","undefined","1","undefined","undefined","white","no","legacy","legacy","legacy","0","relative","undefined","undefined","65","NA","0","0","0","0","0","0","0","81","81","0","15","0","no","04/08/19 09:07:11","A simple template for the mouse-tracking paradigm","yes","Experiment-TF.osexp","C:\Users\Kristen\Documents\opPreviewExperiment-master\procedure","no","mono","no","24","no","black","no","yes","1050","legacy","65","15","C:/Users/Kristen/Documents/opPreviewExperiment-master/procedure/subject-13.csv","legacy","Kafkaesque Koffka","3.2.6","mult","0","a","NA","NA","a","l","11645","NA","NA","20983","11645","2","2314","legacy","small","1024","2","48000","-16","experiment","2_7_mult_true.jpg","13","odd","legacy","391806","NA","90842","NA","NA","2538","NA","2553","79196","391806","395267","23536","76046","2540","mousetracking operator preview effect","0","0","0","no","true","no","1680"
"negative","undefined","1","undefined","undefined","white","no","legacy","legacy","legacy","0","relative","undefined","undefined","66","NA","0","0","0","0","0","0","0","82","82","0","15","0","no","04/08/19 09:07:11","A simple template for the mouse-tracking paradigm","yes","Experiment-TF.osexp","C:\Users\Kristen\Documents\opPreviewExperiment-master\procedure","no","mono","no","24","no","black","no","yes","1050","legacy","66","15","C:/Users/Kristen/Documents/opPreviewExperiment-master/procedure/subject-13.csv","legacy","Kafkaesque Koffka","3.2.6","add","0","l","NA","NA","a","l","11645","NA","NA","20983","11645","2","5199","legacy","large","1024","2","48000","-16","experiment","6_8_add_FNI.jpg","13","odd","legacy","395287","NA","90842","NA","NA","2538","NA","2553","79196","395287","401625","23536","76046","2540","mousetracking operator preview effect","0","0","0","no","false","no","1680"
"neutral","undefined","1","undefined","undefined","white","no","legacy","legacy","legacy","0","relative","undefined","undefined","67","NA","0","0","0","0","0","0","0","83","83","0","15","0","no","04/08/19 09:07:11","A simple template for the mouse-tracking paradigm","yes","Experiment-TF.osexp","C:\Users\Kristen\Documents\opPreviewExperiment-master\procedure","no","mono","no","24","no","black","no","yes","1050","legacy","67","15","C:/Users/Kristen/Documents/opPreviewExperiment-master/procedure/subject-13.csv","legacy","Kafkaesque Koffka","3.2.6","add","0","a","NA","NA","a","l","11645","NA","NA","20983","11645","2","2391","legacy","small","1024","2","48000","-16","experiment","5_3_add_true.jpg","13","odd","legacy","401645","NA","90842","NA","NA","2538","NA","2553","79196","401645","404990","23536","76046","2540","mousetracking operator preview effect","0","0","0","no","true","no","1680"
"neutral","undefined","1","undefined","undefined","white","no","legacy","legacy","legacy","0","relative","undefined","undefined","68","NA","0","0","0","0","0","0","0","84","84","0","15","0","no","04/08/19 09:07:11","A simple template for the mouse-tracking paradigm","yes","Experiment-TF.osexp","C:\Users\Kristen\Documents\opPreviewExperiment-master\procedure","no","mono","no","24","no","black","no","yes","1050","legacy","68","15","C:/Users/Kristen/Documents/opPreviewExperiment-master/procedure/subject-13.csv","legacy","Kafkaesque Koffka","3.2.6","add","0","a","NA","NA","a","l","11645","NA","NA","20983","11645","2","16189","legacy","small","1024","2","48000","-16","experiment","3_6_add_true.jpg","13","odd","legacy","405004","NA","90842","NA","NA","2538","NA","2553","79196","405004","422156","23536","76046","2540","mousetracking operator preview effect","0","0","0","no","true","no","1680"
"neutral","undefined","1","undefined","undefined","white","no","legacy","legacy","legacy","0","relative","undefined","undefined","69","NA","0","0","0","0","0","0","0","85","85","0","15","0","no","04/08/19 09:07:11","A simple template for the mouse-tracking paradigm","yes","Experiment-TF.osexp","C:\Users\Kristen\Documents\opPreviewExperiment-master\procedure","no","mono","no","24","no","black","no","yes","1050","legacy","69","15","C:/Users/Kristen/Documents/opPreviewExperiment-master/procedure/subject-13.csv","legacy","Kafkaesque Koffka","3.2.6","add","0","a","NA","NA","a","l","11645","NA","NA","20983","11645","2","4005","legacy","large","1024","2","48000","-16","experiment","8_4_add_true.jpg","13","odd","legacy","422177","NA","90842","NA","NA","2538","NA","2553","79196","422177","427150","23536","76046","2540","mousetracking operator preview effect","0","0","0","no","true","no","1680"
"negative","undefined","1","undefined","undefined","white","no","legacy","legacy","legacy","0","relative","undefined","undefined","70","NA","0","0","0","0","0","0","0","86","86","0","15","0","no","04/08/19 09:07:11","A simple template for the mouse-tracking paradigm","yes","Experiment-TF.osexp","C:\Users\Kristen\Documents\opPreviewExperiment-master\procedure","no","mono","no","24","no","black","no","yes","1050","legacy","70","15","C:/Users/Kristen/Documents/opPreviewExperiment-master/procedure/subject-13.csv","legacy","Kafkaesque Koffka","3.2.6","mult","0","a","NA","NA","a","l","11645","NA","NA","20983","11645","2","1695","legacy","small","1024","2","48000","-16","experiment","3_6_mult_true.jpg","13","odd","legacy","427171","NA","90842","NA","NA","2538","NA","2553","79196","427171","430005","23536","76046","2540","mousetracking operator preview effect","0","0","0","no","true","no","1680"
"neutral","undefined","1","undefined","undefined","white","no","legacy","legacy","legacy","0","relative","undefined","undefined","71","NA","0","0","0","0","0","0","0","87","87","0","15","0","no","04/08/19 09:07:11","A simple template for the mouse-tracking paradigm","yes","Experiment-TF.osexp","C:\Users\Kristen\Documents\opPreviewExperiment-master\procedure","no","mono","no","24","no","black","no","yes","1050","legacy","71","15","C:/Users/Kristen/Documents/opPreviewExperiment-master/procedure/subject-13.csv","legacy","Kafkaesque Koffka","3.2.6","add","0","a","NA","NA","a","l","11645","NA","NA","20983","11645","2","7615","legacy","small","1024","2","48000","-16","experiment","8_2_add_true.jpg","13","odd","legacy","430028","NA","90842","NA","NA","2538","NA","2553","79196","430028","438615","23536","76046","2540","mousetracking operator preview effect","0","0","0","no","true","no","1680"
"neutral","undefined","1","undefined","undefined","white","no","legacy","legacy","legacy","0","relative","undefined","undefined","72","NA","0","0","0","0","0","0","0","88","88","0","15","0","no","04/08/19 09:07:11","A simple template for the mouse-tracking paradigm","yes","Experiment-TF.osexp","C:\Users\Kristen\Documents\opPreviewExperiment-master\procedure","no","mono","no","24","no","black","no","yes","1050","legacy","72","15","C:/Users/Kristen/Documents/opPreviewExperiment-master/procedure/subject-13.csv","legacy","Kafkaesque Koffka","3.2.6","add","0","a","NA","NA","a","l","11645","NA","NA","20983","11645","2","8360","legacy","large","1024","2","48000","-16","experiment","9_7_add_true.jpg","13","odd","legacy","438639","NA","90842","NA","NA","2538","NA","2553","79196","438639","447969","23536","76046","2540","mousetracking operator preview effect","0","0","0","no","true","no","1680"
"negative","undefined","1","undefined","undefined","white","no","legacy","legacy","legacy","0","relative","undefined","undefined","73","NA","0","0","0","0","0","0","0","89","89","0","15","0","no","04/08/19 09:07:11","A simple template for the mouse-tracking paradigm","yes","Experiment-TF.osexp","C:\Users\Kristen\Documents\opPreviewExperiment-master\procedure","no","mono","no","24","no","black","no","yes","1050","legacy","73","15","C:/Users/Kristen/Documents/opPreviewExperiment-master/procedure/subject-13.csv","legacy","Kafkaesque Koffka","3.2.6","mult","0","a","NA","NA","a","l","11645","NA","NA","20983","11645","2","1825","legacy","small","1024","2","48000","-16","experiment","5_3_mult_true.jpg","13","odd","legacy","447989","NA","90842","NA","NA","2538","NA","2553","79196","447989","450939","23536","76046","2540","mousetracking operator preview effect","0","0","0","no","true","no","1680"
"negative","undefined","1","undefined","undefined","white","no","legacy","legacy","legacy","0","relative","undefined","undefined","74","NA","0","0","0","0","0","0","0","90","90","0","15","0","no","04/08/19 09:07:11","A simple template for the mouse-tracking paradigm","yes","Experiment-TF.osexp","C:\Users\Kristen\Documents\opPreviewExperiment-master\procedure","no","mono","no","24","no","black","no","yes","1050","legacy","74","15","C:/Users/Kristen/Documents/opPreviewExperiment-master/procedure/subject-13.csv","legacy","Kafkaesque Koffka","3.2.6","add","0","a","NA","NA","a","l","11645","NA","NA","20983","11645","2","2787","legacy","large","1024","2","48000","-16","experiment","4_9_add_true.jpg","13","odd","legacy","450963","NA","90842","NA","NA","2538","NA","2553","79196","450963","454889","23536","76046","2540","mousetracking operator preview effect","0","0","0","no","true","no","1680"
"neutral","undefined","1","undefined","undefined","white","no","legacy","legacy","legacy","0","relative","undefined","undefined","75","NA","0","0","0","0","0","0","0","91","91","0","15","0","no","04/08/19 09:07:11","A simple template for the mouse-tracking paradigm","yes","Experiment-TF.osexp","C:\Users\Kristen\Documents\opPreviewExperiment-master\procedure","no","mono","no","24","no","black","no","yes","1050","legacy","75","15","C:/Users/Kristen/Documents/opPreviewExperiment-master/procedure/subject-13.csv","legacy","Kafkaesque Koffka","3.2.6","add","0","l","NA","NA","a","l","11645","NA","NA","20983","11645","2","6912","legacy","small","1024","2","48000","-16","experiment","3_6_add_FNI.jpg","13","odd","legacy","454911","NA","90842","NA","NA","2538","NA","2553","79196","454911","462805","23536","76046","2540","mousetracking operator preview effect","0","0","0","no","false","no","1680"
"neutral","undefined","1","undefined","undefined","white","no","legacy","legacy","legacy","0","relative","undefined","undefined","76","NA","0","0","0","0","0","0","0","92","92","0","15","0","no","04/08/19 09:07:11","A simple template for the mouse-tracking paradigm","yes","Experiment-TF.osexp","C:\Users\Kristen\Documents\opPreviewExperiment-master\procedure","no","mono","no","24","no","black","no","yes","1050","legacy","76","15","C:/Users/Kristen/Documents/opPreviewExperiment-master/procedure/subject-13.csv","legacy","Kafkaesque Koffka","3.2.6","add","0","a","NA","NA","a","l","11645","NA","NA","20983","11645","2","4544","legacy","large","1024","2","48000","-16","experiment","4_9_add_true.jpg","13","odd","legacy","462819","NA","90842","NA","NA","2538","NA","2553","79196","462819","468331","23536","76046","2540","mousetracking operator preview effect","0","0","0","no","true","no","1680"
"neutral","undefined","1","undefined","undefined","white","no","legacy","legacy","legacy","0","relative","undefined","undefined","77","NA","0","0","0","0","0","0","0","93","93","0","15","0","no","04/08/19 09:07:11","A simple template for the mouse-tracking paradigm","yes","Experiment-TF.osexp","C:\Users\Kristen\Documents\opPreviewExperiment-master\procedure","no","mono","no","24","no","black","no","yes","1050","legacy","77","15","C:/Users/Kristen/Documents/opPreviewExperiment-master/procedure/subject-13.csv","legacy","Kafkaesque Koffka","3.2.6","add","0","a","NA","NA","a","l","11645","NA","NA","20983","11645","2","1761","legacy","small","1024","2","48000","-16","experiment","8_2_add_true.jpg","13","odd","legacy","468354","NA","90842","NA","NA","2538","NA","2553","79196","468354","471074","23536","76046","2540","mousetracking operator preview effect","0","0","0","no","true","no","1680"
"negative","undefined","1","undefined","undefined","white","no","legacy","legacy","legacy","0","relative","undefined","undefined","78","NA","0","0","0","0","0","0","0","94","94","0","15","0","no","04/08/19 09:07:11","A simple template for the mouse-tracking paradigm","yes","Experiment-TF.osexp","C:\Users\Kristen\Documents\opPreviewExperiment-master\procedure","no","mono","no","24","no","black","no","yes","1050","legacy","78","15","C:/Users/Kristen/Documents/opPreviewExperiment-master/procedure/subject-13.csv","legacy","Kafkaesque Koffka","3.2.6","add","0","l","NA","NA","a","l","11645","NA","NA","20983","11645","2","4778","legacy","large","1024","2","48000","-16","experiment","4_9_add_FI.jpg","13","odd","legacy","471106","NA","90842","NA","NA","2538","NA","2553","79196","471106","477031","23536","76046","2540","mousetracking operator preview effect","0","0","0","no","false","no","1680"
"negative","undefined","1","undefined","undefined","white","no","legacy","legacy","legacy","0","relative","undefined","undefined","79","NA","0","0","0","0","0","0","0","95","95","0","15","0","no","04/08/19 09:07:11","A simple template for the mouse-tracking paradigm","yes","Experiment-TF.osexp","C:\Users\Kristen\Documents\opPreviewExperiment-master\procedure","no","mono","no","24","no","black","no","yes","1050","legacy","79","15","C:/Users/Kristen/Documents/opPreviewExperiment-master/procedure/subject-13.csv","legacy","Kafkaesque Koffka","3.2.6","mult","0","a","NA","NA","a","l","11645","NA","NA","20983","11645","2","1637","legacy","small","1024","2","48000","-16","experiment","3_6_mult_true.jpg","13","odd","legacy","477053","NA","90842","NA","NA","2538","NA","2553","79196","477053","479819","23536","76046","2540","mousetracking operator preview effect","0","0","0","no","true","no","1680"
"neutral","undefined","1","undefined","undefined","white","no","legacy","legacy","legacy","0","relative","undefined","undefined","80","NA","0","0","0","0","0","0","0","96","96","0","15","0","no","04/08/19 09:07:11","A simple template for the mouse-tracking paradigm","yes","Experiment-TF.osexp","C:\Users\Kristen\Documents\opPreviewExperiment-master\procedure","no","mono","no","24","no","black","no","yes","1050","legacy","80","15","C:/Users/Kristen/Documents/opPreviewExperiment-master/procedure/subject-13.csv","legacy","Kafkaesque Koffka","3.2.6","mult","0","l","NA","NA","a","l","11645","NA","NA","20983","11645","2","1803","legacy","small","1024","2","48000","-16","experiment","5_3_mult_FNI.jpg","13","odd","legacy","479848","NA","90842","NA","NA","2538","NA","2553","79196","479848","482627","23536","76046","2540","mousetracking operator preview effect","0","0","0","no","false","no","1680"
"neutral","undefined","1","undefined","undefined","white","no","legacy","legacy","legacy","0","relative","undefined","undefined","81","NA","0","0","0","0","0","0","0","97","97","0","15","0","no","04/08/19 09:07:11","A simple template for the mouse-tracking paradigm","yes","Experiment-TF.osexp","C:\Users\Kristen\Documents\opPreviewExperiment-master\procedure","no","mono","no","24","no","black","no","yes","1050","legacy","81","15","C:/Users/Kristen/Documents/opPreviewExperiment-master/procedure/subject-13.csv","legacy","Kafkaesque Koffka","3.2.6","mult","0","l","NA","NA","a","l","11645","NA","NA","20983","11645","2","2049","legacy","large","1024","2","48000","-16","experiment","8_4_mult_FI.jpg","13","odd","legacy","482644","NA","90842","NA","NA","2538","NA","2553","79196","482644","485652","23536","76046","2540","mousetracking operator preview effect","0","0","0","no","false","no","1680"
"negative","undefined","1","undefined","undefined","white","no","legacy","legacy","legacy","0","relative","undefined","undefined","82","NA","0","0","0","0","0","0","0","98","98","0","15","0","no","04/08/19 09:07:11","A simple template for the mouse-tracking paradigm","yes","Experiment-TF.osexp","C:\Users\Kristen\Documents\opPreviewExperiment-master\procedure","no","mono","no","24","no","black","no","yes","1050","legacy","82","15","C:/Users/Kristen/Documents/opPreviewExperiment-master/procedure/subject-13.csv","legacy","Kafkaesque Koffka","3.2.6","add","0","l","NA","NA","a","l","11645","NA","NA","20983","11645","2","2077","legacy","small","1024","2","48000","-16","experiment","3_6_add_FI.jpg","13","odd","legacy","485675","NA","90842","NA","NA","2538","NA","2553","79196","485676","488892","23536","76046","2540","mousetracking operator preview effect","0","0","0","no","false","no","1680"
"neutral","undefined","1","undefined","undefined","white","no","legacy","legacy","legacy","0","relative","undefined","undefined","83","NA","0","0","0","0","0","0","0","99","99","0","15","0","no","04/08/19 09:07:11","A simple template for the mouse-tracking paradigm","yes","Experiment-TF.osexp","C:\Users\Kristen\Documents\opPreviewExperiment-master\procedure","no","mono","no","24","no","black","no","yes","1050","legacy","83","15","C:/Users/Kristen/Documents/opPreviewExperiment-master/procedure/subject-13.csv","legacy","Kafkaesque Koffka","3.2.6","mult","0","a","NA","NA","a","l","11645","NA","NA","20983","11645","2","1949","legacy","small","1024","2","48000","-16","experiment","3_6_mult_true.jpg","13","odd","legacy","488906","NA","90842","NA","NA","2538","NA","2553","79196","488906","491814","23536","76046","2540","mousetracking operator preview effect","0","0","0","no","true","no","1680"
"neutral","undefined","1","undefined","undefined","white","no","legacy","legacy","legacy","0","relative","undefined","undefined","84","NA","0","0","0","0","0","0","0","100","100","0","15","0","no","04/08/19 09:07:11","A simple template for the mouse-tracking paradigm","yes","Experiment-TF.osexp","C:\Users\Kristen\Documents\opPreviewExperiment-master\procedure","no","mono","no","24","no","black","no","yes","1050","legacy","84","15","C:/Users/Kristen/Documents/opPreviewExperiment-master/procedure/subject-13.csv","legacy","Kafkaesque Koffka","3.2.6","add","0","a","NA","NA","a","l","11645","NA","NA","20983","11645","2","2682","legacy","small","1024","2","48000","-16","experiment","2_7_add_true.jpg","13","odd","legacy","491836","NA","90842","NA","NA","2538","NA","2553","79196","491836","495489","23536","76046","2540","mousetracking operator preview effect","0","0","0","no","true","no","1680"
"neutral","undefined","1","undefined","undefined","white","no","legacy","legacy","legacy","0","relative","undefined","undefined","85","NA","0","0","0","0","0","0","0","101","101","0","15","0","no","04/08/19 09:07:11","A simple template for the mouse-tracking paradigm","yes","Experiment-TF.osexp","C:\Users\Kristen\Documents\opPreviewExperiment-master\procedure","no","mono","no","24","no","black","no","yes","1050","legacy","85","15","C:/Users/Kristen/Documents/opPreviewExperiment-master/procedure/subject-13.csv","legacy","Kafkaesque Koffka","3.2.6","mult","0","l","NA","NA","a","l","11645","NA","NA","20983","11645","2","1829","legacy","small","1024","2","48000","-16","experiment","5_3_mult_FI.jpg","13","odd","legacy","495512","NA","90842","NA","NA","2538","NA","2553","79196","495512","498328","23536","76046","2540","mousetracking operator preview effect","0","0","0","no","false","no","1680"
"negative","undefined","1","undefined","undefined","white","no","legacy","legacy","legacy","0","relative","undefined","undefined","86","NA","0","0","0","0","0","0","0","102","102","0","15","0","no","04/08/19 09:07:11","A simple template for the mouse-tracking paradigm","yes","Experiment-TF.osexp","C:\Users\Kristen\Documents\opPreviewExperiment-master\procedure","no","mono","no","24","no","black","no","yes","1050","legacy","86","15","C:/Users/Kristen/Documents/opPreviewExperiment-master/procedure/subject-13.csv","legacy","Kafkaesque Koffka","3.2.6","add","0","l","NA","NA","a","l","11645","NA","NA","20983","11645","2","3370","legacy","small","1024","2","48000","-16","experiment","8_2_add_FNI.jpg","13","odd","legacy","498358","NA","90842","NA","NA","2538","NA","2553","79196","498358","502873","23536","76046","2540","mousetracking operator preview effect","0","0","0","no","false","no","1680"
"neutral","undefined","1","undefined","undefined","white","no","legacy","legacy","legacy","0","relative","undefined","undefined","87","NA","0","0","0","0","0","0","0","103","103","0","15","0","no","04/08/19 09:07:11","A simple template for the mouse-tracking paradigm","yes","Experiment-TF.osexp","C:\Users\Kristen\Documents\opPreviewExperiment-master\procedure","no","mono","no","24","no","black","no","yes","1050","legacy","87","15","C:/Users/Kristen/Documents/opPreviewExperiment-master/procedure/subject-13.csv","legacy","Kafkaesque Koffka","3.2.6","add","0","a","NA","NA","a","l","11645","NA","NA","20983","11645","2","1680","legacy","small","1024","2","48000","-16","experiment","5_3_add_true.jpg","13","odd","legacy","502897","NA","90842","NA","NA","2538","NA","2553","79196","502897","505552","23536","76046","2540","mousetracking operator preview effect","0","0","0","no","true","no","1680"
"neutral","undefined","1","undefined","undefined","white","no","legacy","legacy","legacy","0","relative","undefined","undefined","88","NA","0","0","0","0","0","0","0","104","104","0","15","0","no","04/08/19 09:07:11","A simple template for the mouse-tracking paradigm","yes","Experiment-TF.osexp","C:\Users\Kristen\Documents\opPreviewExperiment-master\procedure","no","mono","no","24","no","black","no","yes","1050","legacy","88","15","C:/Users/Kristen/Documents/opPreviewExperiment-master/procedure/subject-13.csv","legacy","Kafkaesque Koffka","3.2.6","add","0","l","NA","NA","a","l","11645","NA","NA","20983","11645","2","2017","legacy","large","1024","2","48000","-16","experiment","9_7_add_FI.jpg","13","odd","legacy","505581","NA","90842","NA","NA","2538","NA","2553","79196","505581","508586","23536","76046","2540","mousetracking operator preview effect","0","0","0","no","false","no","1680"
"neutral","undefined","1","undefined","undefined","white","no","legacy","legacy","legacy","0","relative","undefined","undefined","89","NA","0","0","0","0","0","0","0","105","105","0","15","0","no","04/08/19 09:07:11","A simple template for the mouse-tracking paradigm","yes","Experiment-TF.osexp","C:\Users\Kristen\Documents\opPreviewExperiment-master\procedure","no","mono","no","24","no","black","no","yes","1050","legacy","89","15","C:/Users/Kristen/Documents/opPreviewExperiment-master/procedure/subject-13.csv","legacy","Kafkaesque Koffka","3.2.6","mult","0","l","NA","NA","a","l","11645","NA","NA","20983","11645","2","1928","legacy","small","1024","2","48000","-16","experiment","8_2_mult_FI.jpg","13","odd","legacy","508609","NA","90842","NA","NA","2538","NA","2553","79196","508609","511511","23536","76046","2540","mousetracking operator preview effect","0","0","0","no","false","no","1680"
"negative","undefined","1","undefined","undefined","white","no","legacy","legacy","legacy","0","relative","undefined","undefined","90","NA","0","0","0","0","0","0","0","106","106","0","15","0","no","04/08/19 09:07:11","A simple template for the mouse-tracking paradigm","yes","Experiment-TF.osexp","C:\Users\Kristen\Documents\opPreviewExperiment-master\procedure","no","mono","no","24","no","black","no","yes","1050","legacy","90","15","C:/Users/Kristen/Documents/opPreviewExperiment-master/procedure/subject-13.csv","legacy","Kafkaesque Koffka","3.2.6","mult","0","a","NA","NA","a","l","11645","NA","NA","20983","11645","2","2094","legacy","large","1024","2","48000","-16","experiment","6_8_mult_true.jpg","13","odd","legacy","511537","NA","90842","NA","NA","2538","NA","2553","79196","511537","514763","23536","76046","2540","mousetracking operator preview effect","0","0","0","no","true","no","1680"
"neutral","undefined","1","undefined","undefined","white","no","legacy","legacy","legacy","0","relative","undefined","undefined","91","NA","0","0","0","0","0","0","0","107","107","0","15","0","no","04/08/19 09:07:11","A simple template for the mouse-tracking paradigm","yes","Experiment-TF.osexp","C:\Users\Kristen\Documents\opPreviewExperiment-master\procedure","no","mono","no","24","no","black","no","yes","1050","legacy","91","15","C:/Users/Kristen/Documents/opPreviewExperiment-master/procedure/subject-13.csv","legacy","Kafkaesque Koffka","3.2.6","mult","0","l","NA","NA","a","l","11645","NA","NA","20983","11645","2","2011","legacy","large","1024","2","48000","-16","experiment","4_9_mult_FI.jpg","13","odd","legacy","514784","NA","90842","NA","NA","2538","NA","2553","79196","514784","517763","23536","76046","2540","mousetracking operator preview effect","0","0","0","no","false","no","1680"
"negative","undefined","1","undefined","undefined","white","no","legacy","legacy","legacy","0","relative","undefined","undefined","92","NA","0","0","0","0","0","0","0","108","108","0","15","0","no","04/08/19 09:07:11","A simple template for the mouse-tracking paradigm","yes","Experiment-TF.osexp","C:\Users\Kristen\Documents\opPreviewExperiment-master\procedure","no","mono","no","24","no","black","no","yes","1050","legacy","92","15","C:/Users/Kristen/Documents/opPreviewExperiment-master/procedure/subject-13.csv","legacy","Kafkaesque Koffka","3.2.6","add","0","a","NA","NA","a","l","11645","NA","NA","20983","11645","2","1777","legacy","large","1024","2","48000","-16","experiment","4_9_add_true.jpg","13","odd","legacy","517784","NA","90842","NA","NA","2538","NA","2553","79196","517784","520701","23536","76046","2540","mousetracking operator preview effect","0","0","0","no","true","no","1680"
